words,mask,corr_ans,category,nonwords,tweets,topic,LDT_pracloop.thisRepN,LDT_pracloop.thisTrialN,LDT_pracloop.thisN,LDT_pracloop.thisIndex,LDT_trials.thisRepN,LDT_trials.thisTrialN,LDT_trials.thisN,LDT_trials.thisIndex,AMP_pracloop.thisRepN,AMP_pracloop.thisTrialN,AMP_pracloop.thisN,AMP_pracloop.thisIndex,AMP_trials.thisRepN,AMP_trials.thisTrialN,AMP_trials.thisN,AMP_trials.thisIndex,tweet_loop.thisRepN,tweet_loop.thisTrialN,tweet_loop.thisN,tweet_loop.thisIndex,begin_key.keys,begin_key.rt,key_resp_AMP_instr1.keys,key_resp_AMP_instr1.rt,key_resp_LDT_instr.keys,key_resp_LDT_instr.rt,resp_LDT_prac.keys,resp_LDT_prac.rt,task,keypress,RT,corr,resp_LDT_ready.keys,resp_LDT_ready.rt,resp_LDT.keys,resp_LDT.corr,resp_LDT.rt,LDT_rating.response,LDT_rating.rt,resp_AMP_ready1.keys,resp_AMP_ready1.rt,resp_AMP_prac.keys,resp_AMP_prac.rt,resp_AMP_ready.keys,resp_AMP_ready.rt,resp_AMP.keys,resp_AMP.corr,resp_AMP.rt,AMP_nonword_rating.response,AMP_nonword_rating.rt,AMP_word_rating.response,AMP_word_rating.rt,AMP_random_rating.response,AMP_random_rating.rt,key_resp_LDT_instr_2.keys,key_resp_LDT_instr_2.rt,resp_tweets.keys,resp_tweets.rt,participant,date,expName,psychopyVersion,frameRate,
,,,,,,,,,,,,,,,,,,,,,,,,,,,right,546.3866210301069,,,,,,,,,,,,,,,,,,,,,,,,,,,,,,,,,,,,,1070,2019_Mar_14_1402,mf_amp_cond2,3.0.4,60.00384890728228,
,,,,,,,,,,,,,,,,,,,,,,,,,,,,,right,2.9510238719574318,,,,,,,,,,,,,,,,,,,,,,,,,,,,,,,,,,,1070,2019_Mar_14_1402,mf_amp_cond2,3.0.4,60.00384890728228,
,,,,,,,,,,,,,,,,,,,,,,,,,,,,,,,right,2.584251987191692,,,,,,,,,,,,,,,,,,,,,,,,,,,,,,,,,1070,2019_Mar_14_1402,mf_amp_cond2,3.0.4,60.00384890728228,
bisebell,&&&&&&&,,,,,,0,0,0,1,,,,,,,,,,,,,,,,,,,,,,,left,1.984075205390127,LDT_prac,left,1.984075205390127,0,,,,,,,,,,,,,,,,,,,,,,,,,,,1070,2019_Mar_14_1402,mf_amp_cond2,3.0.4,60.00384890728228,
keyboard,&&&&&&&,,,,,,0,1,1,0,,,,,,,,,,,,,,,,,,,,,,,left,1.1172119149393893,LDT_prac,left,1.1172119149393893,0,,,,,,,,,,,,,,,,,,,,,,,,,,,1070,2019_Mar_14_1402,mf_amp_cond2,3.0.4,60.00384890728228,
,,,,,,,,,,,,,,,,,,,,,,,,,,,,,,,,,,,,,,,right,3.801225670051963,,,,,,,,,,,,,,,,,,,,,,,,,1070,2019_Mar_14_1402,mf_amp_cond2,3.0.4,60.00384890728228,
festate,&&&&&&&,right,nonword,,,,,,,,0,0,0,79,,,,,,,,,,,,,,,,,,,,,LDT,left,1.050538042725293,0,,,left,0,1.050538042725293,,,,,,,,,,,,,,,,,,,,,,1070,2019_Mar_14_1402,mf_amp_cond2,3.0.4,60.00384890728228,
erks,&&&&,right,nonword,,,,,,,,0,1,1,130,,,,,,,,,,,,,,,,,,,,,LDT,left,0.8838015656349398,0,,,left,0,0.8838015656349398,,,,,,,,,,,,,,,,,,,,,,1070,2019_Mar_14_1402,mf_amp_cond2,3.0.4,60.00384890728228,
drumbled,&&&&&&&&,right,nonword,,,,,,,,0,2,2,58,,,,,,,,,,,,,,,,,,,,,LDT,left,0.6672518768634745,0,,,left,0,0.6672518768634745,,,,,,,,,,,,,,,,,,,,,,1070,2019_Mar_14_1402,mf_amp_cond2,3.0.4,60.00384890728228,
pumber,&&&&&&,None,nonword,,,,,,,,0,3,3,14,,,,,,,,,,,,,,,,,,,,,LDT,left,0.7837796924150098,0,,,left,0,0.7837796924150098,,,,,,,,,,,,,,,,,,,,,,1070,2019_Mar_14_1402,mf_amp_cond2,3.0.4,60.00384890728228,
forty,&&&&&,left,neutral,,,,,,,,0,4,4,1,,,,,,,,,,,,,,,,,,,,,LDT,left,0.6170897199715455,1,,,left,1,0.6170897199715455,,,,,,,,,,,,,,,,,,,,,,1070,2019_Mar_14_1402,mf_amp_cond2,3.0.4,60.00384890728228,
juck,&&&&,right,nonword,,,,,,,,0,5,5,115,,,,,,,,,,,,,,,,,,,,,LDT,left,1.1004978242240213,0,,,left,0,1.1004978242240213,,,,,,,,,,,,,,,,,,,,,,1070,2019_Mar_14_1402,mf_amp_cond2,3.0.4,60.00384890728228,
squets,&&&&&&,right,nonword,,,,,,,,0,6,6,149,,,,,,,,,,,,,,,,,,,,,LDT,left,1.7006704366433496,0,,,left,0,1.7006704366433496,,,,,,,,,,,,,,,,,,,,,,1070,2019_Mar_14_1402,mf_amp_cond2,3.0.4,60.00384890728228,
rebels,&&&&&&,left,authority.vice,,,,,,,,0,7,7,197,,,,,,,,,,,,,,,,,,,,,LDT,left,0.6003778743076964,1,,,left,1,0.6003778743076964,,,,,,,,,,,,,,,,,,,,,,1070,2019_Mar_14_1402,mf_amp_cond2,3.0.4,60.00384890728228,
cromiscuity,&&&&&&&&&&&,right,nonword,,,,,,,,0,8,8,140,,,,,,,,,,,,,,,,,,,,,LDT,left,0.5837256828806403,0,,,left,0,0.5837256828806403,,,,,,,,,,,,,,,,,,,,,,1070,2019_Mar_14_1402,mf_amp_cond2,3.0.4,60.00384890728228,
noone,&&&&&,left,neutral,,,,,,,,0,9,9,89,,,,,,,,,,,,,,,,,,,,,LDT,left,1.1171936338025716,1,,,left,1,1.1171936338025716,,,,,,,,,,,,,,,,,,,,,,1070,2019_Mar_14_1402,mf_amp_cond2,3.0.4,60.00384890728228,
ensure,&&&&&&,left,fairness.virtue,,,,,,,,0,10,10,72,,,,,,,,,,,,,,,,,,,,,LDT,left,1.01717079841751,1,,,left,1,1.01717079841751,,,,,,,,,,,,,,,,,,,,,,1070,2019_Mar_14_1402,mf_amp_cond2,3.0.4,60.00384890728228,
feleological,&&&&&&&&&&&&,right,nonword,,,,,,,,0,11,11,132,,,,,,,,,,,,,,,,,,,,,LDT,left,0.5837314558712023,0,,,left,0,0.5837314558712023,,,,,,,,,,,,,,,,,,,,,,1070,2019_Mar_14_1402,mf_amp_cond2,3.0.4,60.00384890728228,
forced,&&&&&&,left,fairness.vice,,,,,,,,0,12,12,124,,,,,,,,,,,,,,,,,,,,,LDT,left,1.3672587403079888,1,,,left,1,1.3672587403079888,,,,,,,,,,,,,,,,,,,,,,1070,2019_Mar_14_1402,mf_amp_cond2,3.0.4,60.00384890728228,
everything,&&&&&&&&&&,left,neutral,,,,,,,,0,13,13,170,,,,,,,,,,,,,,,,,,,,,LDT,left,0.717105499479203,1,,,left,1,0.717105499479203,,,,,,,,,,,,,,,,,,,,,,1070,2019_Mar_14_1402,mf_amp_cond2,3.0.4,60.00384890728228,
freedom,&&&&&&&,left,sanctity.virtue,,,,,,,,0,14,14,198,,,,,,,,,,,,,,,,,,,,,LDT,left,0.7837845032406676,1,,,left,1,0.7837845032406676,,,,,,,,,,,,,,,,,,,,,,1070,2019_Mar_14_1402,mf_amp_cond2,3.0.4,60.00384890728228,
increase,&&&&&&&&,left,care.virtue,,,,,,,,0,15,15,17,,,,,,,,,,,,,,,,,,,,,LDT,left,0.9171441143719221,1,,,left,1,0.9171441143719221,,,,,,,,,,,,,,,,,,,,,,1070,2019_Mar_14_1402,mf_amp_cond2,3.0.4,60.00384890728228,
with,&&&&,left,neutral,,,,,,,,0,16,16,134,,,,,,,,,,,,,,,,,,,,,LDT,left,0.5503815305351054,1,,,left,1,0.5503815305351054,,,,,,,,,,,,,,,,,,,,,,1070,2019_Mar_14_1402,mf_amp_cond2,3.0.4,60.00384890728228,
each,&&&&,left,neutral,,,,,,,,0,17,17,90,,,,,,,,,,,,,,,,,,,,,LDT,left,1.4172592534625892,1,,,left,1,1.4172592534625892,,,,,,,,,,,,,,,,,,,,,,1070,2019_Mar_14_1402,mf_amp_cond2,3.0.4,60.00384890728228,
aubos,&&&&&,right,nonword,,,,,,,,0,18,18,67,,,,,,,,,,,,,,,,,,,,,LDT,left,0.7171241013379586,0,,,left,0,0.7171241013379586,,,,,,,,,,,,,,,,,,,,,,1070,2019_Mar_14_1402,mf_amp_cond2,3.0.4,60.00384890728228,
sfumatoy,&&&&&&&&,None,nonword,,,,,,,,0,19,19,11,,,,,,,,,,,,,,,,,,,,,LDT,left,0.40033476931125733,0,,,left,0,0.40033476931125733,,,,,,,,,,,,,,,,,,,,,,1070,2019_Mar_14_1402,mf_amp_cond2,3.0.4,60.00384890728228,
promises,&&&&&&&&,left,fairness.virtue,,,,,,,,0,20,20,95,,,,,,,,,,,,,,,,,,,,,LDT,left,0.48370509254732497,1,,,left,1,0.48370509254732497,,,,,,,,,,,,,,,,,,,,,,1070,2019_Mar_14_1402,mf_amp_cond2,3.0.4,60.00384890728228,
neutralust,&&&&&&&&&&,right,nonword,,,,,,,,0,21,21,82,,,,,,,,,,,,,,,,,,,,,LDT,left,0.6003839680201963,0,,,left,0,0.6003839680201963,,,,,,,,,,,,,,,,,,,,,,1070,2019_Mar_14_1402,mf_amp_cond2,3.0.4,60.00384890728228,
counpy's,&&&&&&&&,right,nonword,,,,,,,,0,22,22,73,,,,,,,,,,,,,,,,,,,,,LDT,left,0.9504792865095624,0,,,left,0,0.9504792865095624,,,,,,,,,,,,,,,,,,,,,,1070,2019_Mar_14_1402,mf_amp_cond2,3.0.4,60.00384890728228,
suggists,&&&&&&&&,right,nonword,,,,,,,,0,23,23,125,,,,,,,,,,,,,,,,,,,,,LDT,left,0.48369835739163136,0,,,left,0,0.48369835739163136,,,,,,,,,,,,,,,,,,,,,,1070,2019_Mar_14_1402,mf_amp_cond2,3.0.4,60.00384890728228,
couldnt,&&&&&&&,left,neutral,,,,,,,,0,24,24,112,,,,,,,,,,,,,,,,,,,,,LDT,left,0.35046992143611533,1,,,left,1,0.35046992143611533,,,,,,,,,,,,,,,,,,,,,,1070,2019_Mar_14_1402,mf_amp_cond2,3.0.4,60.00384890728228,
terrorist,&&&&&&&&&,left,loyalty.vice,,,,,,,,0,25,25,144,,,,,,,,,,,,,,,,,,,,,LDT,left,0.36701691614553056,1,,,left,1,0.36701691614553056,,,,,,,,,,,,,,,,,,,,,,1070,2019_Mar_14_1402,mf_amp_cond2,3.0.4,60.00384890728228,
dignity,&&&&&&&,left,sanctity.virtue,,,,,,,,0,26,26,165,,,,,,,,,,,,,,,,,,,,,LDT,left,0.4004001965381576,1,,,left,1,0.4004001965381576,,,,,,,,,,,,,,,,,,,,,,1070,2019_Mar_14_1402,mf_amp_cond2,3.0.4,60.00384890728228,
laming,&&&&&&,right,nonword,,,,,,,,0,27,27,106,,,,,,,,,,,,,,,,,,,,,LDT,left,0.35035574451035245,0,,,left,0,0.35035574451035245,,,,,,,,,,,,,,,,,,,,,,1070,2019_Mar_14_1402,mf_amp_cond2,3.0.4,60.00384890728228,
epigrach,&&&&&&&&,right,nonword,,,,,,,,0,28,28,117,,,,,,,,,,,,,,,,,,,,,LDT,left,0.28365493167348177,0,,,left,0,0.28365493167348177,,,,,,,,,,,,,,,,,,,,,,1070,2019_Mar_14_1402,mf_amp_cond2,3.0.4,60.00384890728228,
antral,&&&&&&,right,nonword,,,,,,,,0,29,29,52,,,,,,,,,,,,,,,,,,,,,LDT,left,0.31698112360345476,0,,,left,0,0.31698112360345476,,,,,,,,,,,,,,,,,,,,,,1070,2019_Mar_14_1402,mf_amp_cond2,3.0.4,60.00384890728228,
less,&&&&,left,neutral,,,,,,,,0,30,30,42,,,,,,,,,,,,,,,,,,,,,LDT,left,0.25031494871018367,1,,,left,1,0.25031494871018367,,,,,,,,,,,,,,,,,,,,,,1070,2019_Mar_14_1402,mf_amp_cond2,3.0.4,60.00384890728228,
health,&&&&&&,left,care.virtue,,,,,,,,0,31,31,63,,,,,,,,,,,,,,,,,,,,,LDT,left,0.23362427067877434,1,,,left,1,0.23362427067877434,,,,,,,,,,,,,,,,,,,,,,1070,2019_Mar_14_1402,mf_amp_cond2,3.0.4,60.00384890728228,
whither,&&&&&&&,left,neutral,,,,,,,,0,32,32,196,,,,,,,,,,,,,,,,,,,,,LDT,left,0.30030872670931785,1,,,left,1,0.30030872670931785,,,,,,,,,,,,,,,,,,,,,,1070,2019_Mar_14_1402,mf_amp_cond2,3.0.4,60.00384890728228,
latter,&&&&&&,left,neutral,,,,,,,,0,33,33,96,,,,,,,,,,,,,,,,,,,,,LDT,left,0.583727927932614,1,,,left,1,0.583727927932614,,,,,,,,,,,,,,,,,,,,,,1070,2019_Mar_14_1402,mf_amp_cond2,3.0.4,60.00384890728228,
iptervention,&&&&&&&&&&&&,right,nonword,,,,,,,,0,34,34,47,,,,,,,,,,,,,,,,,,,,,LDT,left,0.2669802897271438,0,,,left,0,0.2669802897271438,,,,,,,,,,,,,,,,,,,,,,1070,2019_Mar_14_1402,mf_amp_cond2,3.0.4,60.00384890728228,
been,&&&&,left,neutral,,,,,,,,0,35,35,191,,,,,,,,,,,,,,,,,,,,,LDT,left,0.11693833932872622,1,,,left,1,0.11693833932872622,,,,,,,,,,,,,,,,,,,,,,1070,2019_Mar_14_1402,mf_amp_cond2,3.0.4,60.00384890728228,
hasks,&&&&&,right,nonword,,,,,,,,0,36,36,141,,,,,,,,,,,,,,,,,,,,,LDT,left,0.43370618300127717,0,,,left,0,0.43370618300127717,,,,,,,,,,,,,,,,,,,,,,1070,2019_Mar_14_1402,mf_amp_cond2,3.0.4,60.00384890728228,
letish,&&&&&&,right,nonword,,,,,,,,0,37,37,6,,,,,,,,,,,,,,,,,,,,,LDT,left,1.550624637584633,0,,,left,0,1.550624637584633,,,,,,,,,,,,,,,,,,,,,,1070,2019_Mar_14_1402,mf_amp_cond2,3.0.4,60.00384890728228,
towards,&&&&&&&,left,neutral,,,,,,,,0,38,38,3,,,,,,,,,,,,,,,,,,,,,LDT,left,0.3503637625531155,1,,,left,1,0.3503637625531155,,,,,,,,,,,,,,,,,,,,,,1070,2019_Mar_14_1402,mf_amp_cond2,3.0.4,60.00384890728228,
carvels,&&&&&&&,None,nonword,,,,,,,,0,39,39,135,,,,,,,,,,,,,,,,,,,,,LDT,left,0.6170727217213425,0,,,left,0,0.6170727217213425,,,,,,,,,,,,,,,,,,,,,,1070,2019_Mar_14_1402,mf_amp_cond2,3.0.4,60.00384890728228,
three,&&&&&,left,neutral,,,,,,,,0,40,40,80,,,,,,,,,,,,,,,,,,,,,LDT,left,2.184129856368145,1,,,left,1,2.184129856368145,,,,,,,,,,,,,,,,,,,,,,1070,2019_Mar_14_1402,mf_amp_cond2,3.0.4,60.00384890728228,
therefore,&&&&&&&&&,left,neutral,,,,,,,,0,41,41,109,,,,,,,,,,,,,,,,,,,,,LDT,left,0.3003449682612427,1,,,left,1,0.3003449682612427,,,,,,,,,,,,,,,,,,,,,,1070,2019_Mar_14_1402,mf_amp_cond2,3.0.4,60.00384890728228,
latterly,&&&&&&&&,left,neutral,,,,,,,,0,42,42,184,,,,,,,,,,,,,,,,,,,,,LDT,left,0.4836935465662009,1,,,left,1,0.4836935465662009,,,,,,,,,,,,,,,,,,,,,,1070,2019_Mar_14_1402,mf_amp_cond2,3.0.4,60.00384890728228,
nackers,&&&&&&&,right,nonword,,,,,,,,0,43,43,169,,,,,,,,,,,,,,,,,,,,,LDT,left,0.48369130151422723,0,,,left,0,0.48369130151422723,,,,,,,,,,,,,,,,,,,,,,1070,2019_Mar_14_1402,mf_amp_cond2,3.0.4,60.00384890728228,
trust,&&&&&,left,authority.virtue,,,,,,,,0,44,44,193,,,,,,,,,,,,,,,,,,,,,LDT,left,0.36699767284335394,1,,,left,1,0.36699767284335394,,,,,,,,,,,,,,,,,,,,,,1070,2019_Mar_14_1402,mf_amp_cond2,3.0.4,60.00384890728228,
pistraught,&&&&&&&&&&,right,nonword,,,,,,,,0,45,45,199,,,,,,,,,,,,,,,,,,,,,LDT,left,0.316991707419902,0,,,left,0,0.316991707419902,,,,,,,,,,,,,,,,,,,,,,1070,2019_Mar_14_1402,mf_amp_cond2,3.0.4,60.00384890728228,
fostet,&&&&&&,right,nonword,,,,,,,,0,46,46,16,,,,,,,,,,,,,,,,,,,,,LDT,left,0.5503914729079042,0,,,left,0,0.5503914729079042,,,,,,,,,,,,,,,,,,,,,,1070,2019_Mar_14_1402,mf_amp_cond2,3.0.4,60.00384890728228,
neputized,&&&&&&&&&,right,nonword,,,,,,,,0,47,47,120,,,,,,,,,,,,,,,,,,,,,LDT,left,0.3836803328320002,0,,,left,0,0.3836803328320002,,,,,,,,,,,,,,,,,,,,,,1070,2019_Mar_14_1402,mf_amp_cond2,3.0.4,60.00384890728228,
anyhow,&&&&&&,left,neutral,,,,,,,,0,48,48,114,,,,,,,,,,,,,,,,,,,,,LDT,left,0.5003723578945483,1,,,left,1,0.5003723578945483,,,,,,,,,,,,,,,,,,,,,,1070,2019_Mar_14_1402,mf_amp_cond2,3.0.4,60.00384890728228,
there,&&&&&,left,neutral,,,,,,,,0,49,49,123,,,,,,,,,,,,,,,,,,,,,LDT,left,0.5670215345378438,1,,,left,1,0.5670215345378438,,,,,,,,,,,,,,,,,,,,,,1070,2019_Mar_14_1402,mf_amp_cond2,3.0.4,60.00384890728228,
praised,&&&&&&&,left,loyalty.virtue,,,,,,,,0,50,50,10,,,,,,,,,,,,,,,,,,,,,LDT,left,0.33366089709716107,1,,,left,1,0.33366089709716107,,,,,,,,,,,,,,,,,,,,,,1070,2019_Mar_14_1402,mf_amp_cond2,3.0.4,60.00384890728228,
pafer,&&&&&,right,nonword,,,,,,,,0,51,51,37,,,,,,,,,,,,,,,,,,,,,LDT,left,0.4503526014377712,0,,,left,0,0.4503526014377712,,,,,,,,,,,,,,,,,,,,,,1070,2019_Mar_14_1402,mf_amp_cond2,3.0.4,60.00384890728228,
toward,&&&&&&,left,neutral,,,,,,,,0,52,52,55,,,,,,,,,,,,,,,,,,,,,LDT,left,0.450356770820008,1,,,left,1,0.450356770820008,,,,,,,,,,,,,,,,,,,,,,1070,2019_Mar_14_1402,mf_amp_cond2,3.0.4,60.00384890728228,
progress,&&&&&&&&,left,authority.virtue,,,,,,,,0,53,53,157,,,,,,,,,,,,,,,,,,,,,LDT,left,3.5511506211739743,1,,,left,1,3.5511506211739743,,,,,,,,,,,,,,,,,,,,,,1070,2019_Mar_14_1402,mf_amp_cond2,3.0.4,60.00384890728228,
police,&&&&&&,left,authority.vice,,,,,,,,0,54,54,59,,,,,,,,,,,,,,,,,,,,,LDT,left,2.5508687067988376,1,,,left,1,2.5508687067988376,,,,,,,,,,,,,,,,,,,,,,1070,2019_Mar_14_1402,mf_amp_cond2,3.0.4,60.00384890728228,
perified,&&&&&&&&,right,nonword,,,,,,,,0,55,55,25,,,,,,,,,,,,,,,,,,,,,LDT,left,0.30032187629899454,0,,,left,0,0.30032187629899454,,,,,,,,,,,,,,,,,,,,,,1070,2019_Mar_14_1402,mf_amp_cond2,3.0.4,60.00384890728228,
gazily,&&&&&&,right,nonword,,,,,,,,0,56,56,70,,,,,,,,,,,,,,,,,,,,,LDT,left,0.3836694282942972,0,,,left,0,0.3836694282942972,,,,,,,,,,,,,,,,,,,,,,1070,2019_Mar_14_1402,mf_amp_cond2,3.0.4,60.00384890728228,
gaultless,&&&&&&&&&,right,nonword,,,,,,,,0,57,57,4,,,,,,,,,,,,,,,,,,,,,LDT,left,0.4170434077580012,0,,,left,0,0.4170434077580012,,,,,,,,,,,,,,,,,,,,,,1070,2019_Mar_14_1402,mf_amp_cond2,3.0.4,60.00384890728228,
framatic,&&&&&&&&,right,nonword,,,,,,,,0,58,58,77,,,,,,,,,,,,,,,,,,,,,LDT,left,0.3836642967469288,0,,,left,0,0.3836642967469288,,,,,,,,,,,,,,,,,,,,,,1070,2019_Mar_14_1402,mf_amp_cond2,3.0.4,60.00384890728228,
hence,&&&&&,left,neutral,,,,,,,,0,59,59,154,,,,,,,,,,,,,,,,,,,,,LDT,left,0.4336862982559069,1,,,left,1,0.4336862982559069,,,,,,,,,,,,,,,,,,,,,,1070,2019_Mar_14_1402,mf_amp_cond2,3.0.4,60.00384890728228,
torture,&&&&&&&,left,care.vice,,,,,,,,0,60,60,62,,,,,,,,,,,,,,,,,,,,,LDT,left,0.33369906297934904,1,,,left,1,0.33369906297934904,,,,,,,,,,,,,,,,,,,,,,1070,2019_Mar_14_1402,mf_amp_cond2,3.0.4,60.00384890728228,
nonobservalt,&&&&&&&&&&&&,right,nonword,,,,,,,,0,61,61,127,,,,,,,,,,,,,,,,,,,,,LDT,left,0.40020070764035154,0,,,left,0,0.40020070764035154,,,,,,,,,,,,,,,,,,,,,,1070,2019_Mar_14_1402,mf_amp_cond2,3.0.4,60.00384890728228,
ban,&&&,left,loyalty.vice,,,,,,,,0,62,62,190,,,,,,,,,,,,,,,,,,,,,LDT,left,0.3669995971733897,1,,,left,1,0.3669995971733897,,,,,,,,,,,,,,,,,,,,,,1070,2019_Mar_14_1402,mf_amp_cond2,3.0.4,60.00384890728228,
halaise,&&&&&&&,None,nonword,,,,,,,,0,63,63,118,,,,,,,,,,,,,,,,,,,,,LDT,left,0.5503363087752859,0,,,left,0,0.5503363087752859,,,,,,,,,,,,,,,,,,,,,,1070,2019_Mar_14_1402,mf_amp_cond2,3.0.4,60.00384890728228,
even,&&&&,left,neutral,,,,,,,,0,64,64,35,,,,,,,,,,,,,,,,,,,,,LDT,left,0.8171004320761313,1,,,left,1,0.8171004320761313,,,,,,,,,,,,,,,,,,,,,,1070,2019_Mar_14_1402,mf_amp_cond2,3.0.4,60.00384890728228,
nuckheap,&&&&&&&&,right,nonword,,,,,,,,0,65,65,146,,,,,,,,,,,,,,,,,,,,,LDT,left,4.984862256443876,0,,,left,0,4.984862256443876,,,,,,,,,,,,,,,,,,,,,,1070,2019_Mar_14_1402,mf_amp_cond2,3.0.4,60.00384890728228,
praise,&&&&&&,left,authority.virtue,,,,,,,,0,66,66,21,,,,,,,,,,,,,,,,,,,,,LDT,left,0.3169913866979641,1,,,left,1,0.3169913866979641,,,,,,,,,,,,,,,,,,,,,,1070,2019_Mar_14_1402,mf_amp_cond2,3.0.4,60.00384890728228,
either,&&&&&&,left,neutral,,,,,,,,0,67,67,92,,,,,,,,,,,,,,,,,,,,,LDT,left,0.40038063251449785,1,,,left,1,0.40038063251449785,,,,,,,,,,,,,,,,,,,,,,1070,2019_Mar_14_1402,mf_amp_cond2,3.0.4,60.00384890728228,
mightingale,&&&&&&&&&&&,right,nonword,,,,,,,,0,68,68,138,,,,,,,,,,,,,,,,,,,,,LDT,left,0.40033765580665204,0,,,left,0,0.40033765580665204,,,,,,,,,,,,,,,,,,,,,,1070,2019_Mar_14_1402,mf_amp_cond2,3.0.4,60.00384890728228,
dramens,&&&&&&&,right,nonword,,,,,,,,0,69,69,116,,,,,,,,,,,,,,,,,,,,,LDT,left,0.38367039045942875,0,,,left,0,0.38367039045942875,,,,,,,,,,,,,,,,,,,,,,1070,2019_Mar_14_1402,mf_amp_cond2,3.0.4,60.00384890728228,
voter,&&&&&,left,fairness.vice,,,,,,,,0,70,70,85,,,,,,,,,,,,,,,,,,,,,LDT,left,0.417005562597069,1,,,left,1,0.417005562597069,,,,,,,,,,,,,,,,,,,,,,1070,2019_Mar_14_1402,mf_amp_cond2,3.0.4,60.00384890728228,
were,&&&&,left,neutral,,,,,,,,0,71,71,164,,,,,,,,,,,,,,,,,,,,,LDT,left,0.4003466360143193,1,,,left,1,0.4003466360143193,,,,,,,,,,,,,,,,,,,,,,1070,2019_Mar_14_1402,mf_amp_cond2,3.0.4,60.00384890728228,
become,&&&&&&,left,neutral,,,,,,,,0,72,72,33,,,,,,,,,,,,,,,,,,,,,LDT,left,0.3003430439312069,1,,,left,1,0.3003430439312069,,,,,,,,,,,,,,,,,,,,,,1070,2019_Mar_14_1402,mf_amp_cond2,3.0.4,60.00384890728228,
tenuflect,&&&&&&&&&,right,nonword,,,,,,,,0,73,73,173,,,,,,,,,,,,,,,,,,,,,LDT,left,0.3836617309736994,0,,,left,0,0.3836617309736994,,,,,,,,,,,,,,,,,,,,,,1070,2019_Mar_14_1402,mf_amp_cond2,3.0.4,60.00384890728228,
restore,&&&&&&&,left,care.virtue,,,,,,,,0,74,74,111,,,,,,,,,,,,,,,,,,,,,LDT,left,0.2836722506451679,1,,,left,1,0.2836722506451679,,,,,,,,,,,,,,,,,,,,,,1070,2019_Mar_14_1402,mf_amp_cond2,3.0.4,60.00384890728228,
chreams,&&&&&&&,right,nonword,,,,,,,,0,75,75,81,,,,,,,,,,,,,,,,,,,,,LDT,left,0.5003925633618564,0,,,left,0,0.5003925633618564,,,,,,,,,,,,,,,,,,,,,,1070,2019_Mar_14_1402,mf_amp_cond2,3.0.4,60.00384890728228,
baklara,&&&&&&&,right,nonword,,,,,,,,0,76,76,98,,,,,,,,,,,,,,,,,,,,,LDT,left,0.450372165461431,0,,,left,0,0.450372165461431,,,,,,,,,,,,,,,,,,,,,,1070,2019_Mar_14_1402,mf_amp_cond2,3.0.4,60.00384890728228,
else,&&&&,left,neutral,,,,,,,,0,77,77,7,,,,,,,,,,,,,,,,,,,,,LDT,left,0.31698401009884947,1,,,left,1,0.31698401009884947,,,,,,,,,,,,,,,,,,,,,,1070,2019_Mar_14_1402,mf_amp_cond2,3.0.4,60.00384890728228,
could,&&&&&,left,neutral,,,,,,,,0,78,78,163,,,,,,,,,,,,,,,,,,,,,LDT,left,0.26696746085917766,1,,,left,1,0.26696746085917766,,,,,,,,,,,,,,,,,,,,,,1070,2019_Mar_14_1402,mf_amp_cond2,3.0.4,60.00384890728228,
amoungst,&&&&&&&&,left,neutral,,,,,,,,0,79,79,121,,,,,,,,,,,,,,,,,,,,,LDT,left,0.06692660091448488,1,,,left,1,0.06692660091448488,,,,,,,,,,,,,,,,,,,,,,1070,2019_Mar_14_1402,mf_amp_cond2,3.0.4,60.00384890728228,
Phintoism,&&&&&&&&&,right,nonword,,,,,,,,0,80,80,19,,,,,,,,,,,,,,,,,,,,,LDT,left,0.3336718016348641,0,,,left,0,0.3336718016348641,,,,,,,,,,,,,,,,,,,,,,1070,2019_Mar_14_1402,mf_amp_cond2,3.0.4,60.00384890728228,
ilportation,&&&&&&&&&&&,right,nonword,,,,,,,,0,81,81,177,,,,,,,,,,,,,,,,,,,,,LDT,left,0.41701069414443737,0,,,left,0,0.41701069414443737,,,,,,,,,,,,,,,,,,,,,,1070,2019_Mar_14_1402,mf_amp_cond2,3.0.4,60.00384890728228,
protect,&&&&&&&,left,fairness.virtue,,,,,,,,0,82,82,129,,,,,,,,,,,,,,,,,,,,,LDT,left,0.40035786127373285,1,,,left,1,0.40035786127373285,,,,,,,,,,,,,,,,,,,,,,1070,2019_Mar_14_1402,mf_amp_cond2,3.0.4,60.00384890728228,
scandal,&&&&&&&,left,sanctity.vice,,,,,,,,0,83,83,155,,,,,,,,,,,,,,,,,,,,,LDT,left,0.41701422208302574,1,,,left,1,0.41701422208302574,,,,,,,,,,,,,,,,,,,,,,1070,2019_Mar_14_1402,mf_amp_cond2,3.0.4,60.00384890728228,
sidearbs,&&&&&&&&,right,nonword,,,,,,,,0,84,84,75,,,,,,,,,,,,,,,,,,,,,LDT,left,0.6337415906771184,0,,,left,0,0.6337415906771184,,,,,,,,,,,,,,,,,,,,,,1070,2019_Mar_14_1402,mf_amp_cond2,3.0.4,60.00384890728228,
least,&&&&&,left,neutral,,,,,,,,0,85,85,93,,,,,,,,,,,,,,,,,,,,,LDT,left,0.7004385548536902,1,,,left,1,0.7004385548536902,,,,,,,,,,,,,,,,,,,,,,1070,2019_Mar_14_1402,mf_amp_cond2,3.0.4,60.00384890728228,
mostly,&&&&&&,left,neutral,,,,,,,,0,86,86,87,,,,,,,,,,,,,,,,,,,,,LDT,left,0.667069386215644,1,,,left,1,0.667069386215644,,,,,,,,,,,,,,,,,,,,,,1070,2019_Mar_14_1402,mf_amp_cond2,3.0.4,60.00384890728228,
neneficence,&&&&&&&&&&&,right,nonword,,,,,,,,0,87,87,50,,,,,,,,,,,,,,,,,,,,,LDT,left,2.5342222883623435,0,,,left,0,2.5342222883623435,,,,,,,,,,,,,,,,,,,,,,1070,2019_Mar_14_1402,mf_amp_cond2,3.0.4,60.00384890728228,
ittutable,&&&&&&&&&,right,nonword,,,,,,,,0,88,88,172,,,,,,,,,,,,,,,,,,,,,LDT,left,0.31700132907076295,0,,,left,0,0.31700132907076295,,,,,,,,,,,,,,,,,,,,,,1070,2019_Mar_14_1402,mf_amp_cond2,3.0.4,60.00384890728228,
friends,&&&&&&&,left,loyalty.virtue,,,,,,,,0,89,89,185,,,,,,,,,,,,,,,,,,,,,LDT,left,0.3836684661291656,1,,,left,1,0.3836684661291656,,,,,,,,,,,,,,,,,,,,,,1070,2019_Mar_14_1402,mf_amp_cond2,3.0.4,60.00384890728228,
conspiracy,&&&&&&&&&&,left,sanctity.vice,,,,,,,,0,90,90,31,,,,,,,,,,,,,,,,,,,,,LDT,left,0.31700132907076295,1,,,left,1,0.31700132907076295,,,,,,,,,,,,,,,,,,,,,,1070,2019_Mar_14_1402,mf_amp_cond2,3.0.4,60.00384890728228,
bluently,&&&&&&&&,None,nonword,,,,,,,,0,91,91,61,,,,,,,,,,,,,,,,,,,,,LDT,left,0.41700235538019115,0,,,left,0,0.41700235538019115,,,,,,,,,,,,,,,,,,,,,,1070,2019_Mar_14_1402,mf_amp_cond2,3.0.4,60.00384890728228,
dormandi,&&&&&&&&,None,nonword,,,,,,,,0,92,92,162,,,,,,,,,,,,,,,,,,,,,LDT,left,0.517046037675982,0,,,left,0,0.517046037675982,,,,,,,,,,,,,,,,,,,,,,1070,2019_Mar_14_1402,mf_amp_cond2,3.0.4,60.00384890728228,
grovelire,&&&&&&&&&,right,nonword,,,,,,,,0,93,93,68,,,,,,,,,,,,,,,,,,,,,LDT,left,0.6170704766693689,0,,,left,0,0.6170704766693689,,,,,,,,,,,,,,,,,,,,,,1070,2019_Mar_14_1402,mf_amp_cond2,3.0.4,60.00384890728228,
esquisiteness,&&&&&&&&&&&&&,right,nonword,,,,,,,,0,94,94,186,,,,,,,,,,,,,,,,,,,,,LDT,left,0.6004176437986644,0,,,left,0,0.6004176437986644,,,,,,,,,,,,,,,,,,,,,,1070,2019_Mar_14_1402,mf_amp_cond2,3.0.4,60.00384890728228,
front,&&&&&,left,neutral,,,,,,,,0,95,95,189,,,,,,,,,,,,,,,,,,,,,LDT,left,0.8004389397196974,1,,,left,1,0.8004389397196974,,,,,,,,,,,,,,,,,,,,,,1070,2019_Mar_14_1402,mf_amp_cond2,3.0.4,60.00384890728228,
amount,&&&&&&,left,neutral,,,,,,,,0,96,96,194,,,,,,,,,,,,,,,,,,,,,LDT,left,1.817376573460706,1,,,left,1,1.817376573460706,,,,,,,,,,,,,,,,,,,,,,1070,2019_Mar_14_1402,mf_amp_cond2,3.0.4,60.00384890728228,
integrity,&&&&&&&&&,left,fairness.virtue,,,,,,,,0,97,97,43,,,,,,,,,,,,,,,,,,,,,LDT,left,4.868162213338792,1,,,left,1,4.868162213338792,,,,,,,,,,,,,,,,,,,,,,1070,2019_Mar_14_1402,mf_amp_cond2,3.0.4,60.00384890728228,
groups,&&&&&&,left,loyalty.vice,,,,,,,,0,98,98,41,,,,,,,,,,,,,,,,,,,,,LDT,left,0.9004701138690052,1,,,left,1,0.9004701138690052,,,,,,,,,,,,,,,,,,,,,,1070,2019_Mar_14_1402,mf_amp_cond2,3.0.4,60.00384890728228,
men,&&&,left,loyalty.vice,,,,,,,,0,99,99,27,,,,,,,,,,,,,,,,,,,,,LDT,left,0.21696887203461301,1,,,left,1,0.21696887203461301,,,,,,,,,,,,,,,,,,,,,,1070,2019_Mar_14_1402,mf_amp_cond2,3.0.4,60.00384890728228,
asn,&&&,right,nonword,,,,,,,,0,100,100,64,,,,,,,,,,,,,,,,,,,,,LDT,left,0.46703654431348696,0,,,left,0,0.46703654431348696,,,,,,,,,,,,,,,,,,,,,,1070,2019_Mar_14_1402,mf_amp_cond2,3.0.4,60.00384890728228,
although,&&&&&&&&,left,neutral,,,,,,,,0,101,101,26,,,,,,,,,,,,,,,,,,,,,LDT,left,0.41700780764904266,1,,,left,1,0.41700780764904266,,,,,,,,,,,,,,,,,,,,,,1070,2019_Mar_14_1402,mf_amp_cond2,3.0.4,60.00384890728228,
died,&&&&,left,care.vice,,,,,,,,0,102,102,12,,,,,,,,,,,,,,,,,,,,,LDT,left,1.9173952394637581,1,,,left,1,1.9173952394637581,,,,,,,,,,,,,,,,,,,,,,1070,2019_Mar_14_1402,mf_amp_cond2,3.0.4,60.00384890728228,
divility,&&&&&&&&,right,nonword,,,,,,,,0,103,103,158,,,,,,,,,,,,,,,,,,,,,LDT,left,0.6837658372376154,0,,,left,0,0.6837658372376154,,,,,,,,,,,,,,,,,,,,,,1070,2019_Mar_14_1402,mf_amp_cond2,3.0.4,60.00384890728228,
sickyay,&&&&&&&,right,nonword,,,,,,,,0,104,104,65,,,,,,,,,,,,,,,,,,,,,LDT,left,0.6670722727110387,0,,,left,0,0.6670722727110387,,,,,,,,,,,,,,,,,,,,,,1070,2019_Mar_14_1402,mf_amp_cond2,3.0.4,60.00384890728228,
further,&&&&&&&,left,neutral,,,,,,,,0,105,105,166,,,,,,,,,,,,,,,,,,,,,LDT,left,0.40021930949887974,1,,,left,1,0.40021930949887974,,,,,,,,,,,,,,,,,,,,,,1070,2019_Mar_14_1402,mf_amp_cond2,3.0.4,60.00384890728228,
sexual,&&&&&&,left,sanctity.vice,,,,,,,,0,106,106,69,,,,,,,,,,,,,,,,,,,,,LDT,left,0.6003826851333542,1,,,left,1,0.6003826851333542,,,,,,,,,,,,,,,,,,,,,,1070,2019_Mar_14_1402,mf_amp_cond2,3.0.4,60.00384890728228,
metibolic,&&&&&&&&&,right,nonword,,,,,,,,0,107,107,0,,,,,,,,,,,,,,,,,,,,,LDT,right,2.4008973151744613,1,,,right,1,2.4008973151744613,,,,,,,,,,,,,,,,,,,,,,1070,2019_Mar_14_1402,mf_amp_cond2,3.0.4,60.00384890728228,
galamitous,&&&&&&&&&&,right,nonword,,,,,,,,0,108,108,24,,,,,,,,,,,,,,,,,,,,,LDT,left,1.8840533321701969,0,,,left,0,1.8840533321701969,,,,,,,,,,,,,,,,,,,,,,1070,2019_Mar_14_1402,mf_amp_cond2,3.0.4,60.00384890728228,
thadowed,&&&&&&&&,right,nonword,,,,,,,,0,109,109,126,,,,,,,,,,,,,,,,,,,,,LDT,left,1.8507245744663123,0,,,left,0,1.8507245744663123,,,,,,,,,,,,,,,,,,,,,,1070,2019_Mar_14_1402,mf_amp_cond2,3.0.4,60.00384890728228,
wump,&&&&,right,nonword,,,,,,,,0,110,110,8,,,,,,,,,,,,,,,,,,,,,LDT,left,1.1338727658526295,0,,,left,0,1.1338727658526295,,,,,,,,,,,,,,,,,,,,,,1070,2019_Mar_14_1402,mf_amp_cond2,3.0.4,60.00384890728228,
fifty,&&&&&,left,neutral,,,,,,,,0,111,111,188,,,,,,,,,,,,,,,,,,,,,LDT,left,3.0009945579940904,1,,,left,1,3.0009945579940904,,,,,,,,,,,,,,,,,,,,,,1070,2019_Mar_14_1402,mf_amp_cond2,3.0.4,60.00384890728228,
violence,&&&&&&&&,left,care.vice,,,,,,,,0,112,112,78,,,,,,,,,,,,,,,,,,,,,LDT,right,1.3339030419811024,0,,,right,0,1.3339030419811024,,,,,,,,,,,,,,,,,,,,,,1070,2019_Mar_14_1402,mf_amp_cond2,3.0.4,60.00384890728228,
strength,&&&&&&&&,left,sanctity.virtue,,,,,,,,0,113,113,13,,,,,,,,,,,,,,,,,,,,,LDT,left,2.5009041144744515,1,,,left,1,2.5009041144744515,,,,,,,,,,,,,,,,,,,,,,1070,2019_Mar_14_1402,mf_amp_cond2,3.0.4,60.00384890728228,
harassment,&&&&&&&&&&,left,sanctity.vice,,,,,,,,0,114,114,156,,,,,,,,,,,,,,,,,,,,,LDT,right,0.8838089422340545,0,,,right,0,0.8838089422340545,,,,,,,,,,,,,,,,,,,,,,1070,2019_Mar_14_1402,mf_amp_cond2,3.0.4,60.00384890728228,
Lacedonia,&&&&&&&&&,right,nonword,,,,,,,,0,115,115,107,,,,,,,,,,,,,,,,,,,,,LDT,left,1.383890084824543,0,,,left,0,1.383890084824543,,,,,,,,,,,,,,,,,,,,,,1070,2019_Mar_14_1402,mf_amp_cond2,3.0.4,60.00384890728228,
refuejing,&&&&&&&&&,right,nonword,,,,,,,,0,116,116,192,,,,,,,,,,,,,,,,,,,,,LDT,left,2.600891991194203,0,,,left,0,2.600891991194203,,,,,,,,,,,,,,,,,,,,,,1070,2019_Mar_14_1402,mf_amp_cond2,3.0.4,60.00384890728228,
edancipation,&&&&&&&&&&&&,None,nonword,,,,,,,,0,117,117,49,,,,,,,,,,,,,,,,,,,,,LDT,left,0.7171135175217387,0,,,left,0,0.7171135175217387,,,,,,,,,,,,,,,,,,,,,,1070,2019_Mar_14_1402,mf_amp_cond2,3.0.4,60.00384890728228,
about,&&&&&,left,neutral,,,,,,,,0,118,118,22,,,,,,,,,,,,,,,,,,,,,LDT,right,1.18386429879979,0,,,right,0,1.18386429879979,,,,,,,,,,,,,,,,,,,,,,1070,2019_Mar_14_1402,mf_amp_cond2,3.0.4,60.00384890728228,
ugeasily,&&&&&&&&,right,nonword,,,,,,,,0,119,119,101,,,,,,,,,,,,,,,,,,,,,LDT,left,0.61706053429657,0,,,left,0,0.61706053429657,,,,,,,,,,,,,,,,,,,,,,1070,2019_Mar_14_1402,mf_amp_cond2,3.0.4,60.00384890728228,
strong,&&&&&&,left,loyalty.virtue,,,,,,,,0,120,120,36,,,,,,,,,,,,,,,,,,,,,LDT,left,1.4506444581857068,1,,,left,1,1.4506444581857068,,,,,,,,,,,,,,,,,,,,,,1070,2019_Mar_14_1402,mf_amp_cond2,3.0.4,60.00384890728228,
tove,&&&&,right,nonword,,,,,,,,0,121,121,133,,,,,,,,,,,,,,,,,,,,,LDT,right,1.0171740056343879,1,,,right,1,1.0171740056343879,,,,,,,,,,,,,,,,,,,,,,1070,2019_Mar_14_1402,mf_amp_cond2,3.0.4,60.00384890728228,
lursuer,&&&&&&&,right,nonword,,,,,,,,0,122,122,51,,,,,,,,,,,,,,,,,,,,,LDT,left,0.6003945518364162,0,,,left,0,0.6003945518364162,,,,,,,,,,,,,,,,,,,,,,1070,2019_Mar_14_1402,mf_amp_cond2,3.0.4,60.00384890728228,
frocessing,&&&&&&&&&&,right,nonword,,,,,,,,0,123,123,103,,,,,,,,,,,,,,,,,,,,,LDT,right,0.8337975245415237,1,,,right,1,0.8337975245415237,,,,,,,,,,,,,,,,,,,,,,1070,2019_Mar_14_1402,mf_amp_cond2,3.0.4,60.00384890728228,
elsewhere,&&&&&&&&&,left,neutral,,,,,,,,0,124,124,145,,,,,,,,,,,,,,,,,,,,,LDT,left,0.6004035320438561,1,,,left,1,0.6004035320438561,,,,,,,,,,,,,,,,,,,,,,1070,2019_Mar_14_1402,mf_amp_cond2,3.0.4,60.00384890728228,
slending,&&&&&&&&,right,nonword,,,,,,,,0,125,125,131,,,,,,,,,,,,,,,,,,,,,LDT,left,0.8837178572709945,0,,,left,0,0.8837178572709945,,,,,,,,,,,,,,,,,,,,,,1070,2019_Mar_14_1402,mf_amp_cond2,3.0.4,60.00384890728228,
menizen,&&&&&&&,None,nonword,,,,,,,,0,126,126,108,,,,,,,,,,,,,,,,,,,,,LDT,left,1.0838523679524315,0,,,left,0,1.0838523679524315,,,,,,,,,,,,,,,,,,,,,,1070,2019_Mar_14_1402,mf_amp_cond2,3.0.4,60.00384890728228,
whereafter,&&&&&&&&&&,left,neutral,,,,,,,,0,127,127,137,,,,,,,,,,,,,,,,,,,,,LDT,right,0.600396476166452,0,,,right,0,0.600396476166452,,,,,,,,,,,,,,,,,,,,,,1070,2019_Mar_14_1402,mf_amp_cond2,3.0.4,60.00384890728228,
fifteen,&&&&&&&,left,neutral,,,,,,,,0,128,128,20,,,,,,,,,,,,,,,,,,,,,LDT,right,1.1671925433488468,0,,,right,0,1.1671925433488468,,,,,,,,,,,,,,,,,,,,,,1070,2019_Mar_14_1402,mf_amp_cond2,3.0.4,60.00384890728228,
shoirmaster,&&&&&&&&&&&,None,nonword,,,,,,,,0,129,129,5,,,,,,,,,,,,,,,,,,,,,LDT,left,3.0009887850035284,0,,,left,0,3.0009887850035284,,,,,,,,,,,,,,,,,,,,,,1070,2019_Mar_14_1402,mf_amp_cond2,3.0.4,60.00384890728228,
quarterbocks,&&&&&&&&&&&&,right,nonword,,,,,,,,0,130,130,122,,,,,,,,,,,,,,,,,,,,,LDT,left,1.1005266891770589,0,,,left,0,1.1005266891770589,,,,,,,,,,,,,,,,,,,,,,1070,2019_Mar_14_1402,mf_amp_cond2,3.0.4,60.00384890728228,
totalestic,&&&&&&&&&&,None,nonword,,,,,,,,0,131,131,30,,,,,,,,,,,,,,,,,,,,,LDT,left,0.883803489965203,0,,,left,0,0.883803489965203,,,,,,,,,,,,,,,,,,,,,,1070,2019_Mar_14_1402,mf_amp_cond2,3.0.4,60.00384890728228,
dumid,&&&&&,right,nonword,,,,,,,,0,132,132,167,,,,,,,,,,,,,,,,,,,,,LDT,left,0.6837642336290628,0,,,left,0,0.6837642336290628,,,,,,,,,,,,,,,,,,,,,,1070,2019_Mar_14_1402,mf_amp_cond2,3.0.4,60.00384890728228,
nomparisons,&&&&&&&&&&&,right,nonword,,,,,,,,0,133,133,139,,,,,,,,,,,,,,,,,,,,,LDT,left,0.5503744746577013,0,,,left,0,0.5503744746577013,,,,,,,,,,,,,,,,,,,,,,1070,2019_Mar_14_1402,mf_amp_cond2,3.0.4,60.00384890728228,
killed,&&&&&&,left,care.vice,,,,,,,,0,134,134,86,,,,,,,,,,,,,,,,,,,,,LDT,left,1.4339473657203143,1,,,left,1,1.4339473657203143,,,,,,,,,,,,,,,,,,,,,,1070,2019_Mar_14_1402,mf_amp_cond2,3.0.4,60.00384890728228,
pullness,&&&&&&&&,right,nonword,,,,,,,,0,135,135,110,,,,,,,,,,,,,,,,,,,,,LDT,right,0.4836935465662009,1,,,right,1,0.4836935465662009,,,,,,,,,,,,,,,,,,,,,,1070,2019_Mar_14_1402,mf_amp_cond2,3.0.4,60.00384890728228,
crinking,&&&&&&&&,right,nonword,,,,,,,,0,136,136,88,,,,,,,,,,,,,,,,,,,,,LDT,left,0.9004816598501293,0,,,left,0,0.9004816598501293,,,,,,,,,,,,,,,,,,,,,,1070,2019_Mar_14_1402,mf_amp_cond2,3.0.4,60.00384890728228,
rivernoat,&&&&&&&&&,right,nonword,,,,,,,,0,137,137,2,,,,,,,,,,,,,,,,,,,,,LDT,right,1.0505117435457123,1,,,right,1,1.0505117435457123,,,,,,,,,,,,,,,,,,,,,,1070,2019_Mar_14_1402,mf_amp_cond2,3.0.4,60.00384890728228,
stindig,&&&&&&&,right,nonword,,,,,,,,0,138,138,40,,,,,,,,,,,,,,,,,,,,,LDT,left,0.40032418549526483,0,,,left,0,0.40032418549526483,,,,,,,,,,,,,,,,,,,,,,1070,2019_Mar_14_1402,mf_amp_cond2,3.0.4,60.00384890728228,
promote,&&&&&&&,left,sanctity.virtue,,,,,,,,0,139,139,150,,,,,,,,,,,,,,,,,,,,,LDT,left,1.0171691948089574,1,,,left,1,1.0171691948089574,,,,,,,,,,,,,,,,,,,,,,1070,2019_Mar_14_1402,mf_amp_cond2,3.0.4,60.00384890728228,
good,&&&&,left,care.virtue,,,,,,,,0,140,140,187,,,,,,,,,,,,,,,,,,,,,LDT,left,1.0171711191392205,1,,,left,1,1.0171711191392205,,,,,,,,,,,,,,,,,,,,,,1070,2019_Mar_14_1402,mf_amp_cond2,3.0.4,60.00384890728228,
support,&&&&&&&,left,loyalty.virtue,,,,,,,,0,141,141,9,,,,,,,,,,,,,,,,,,,,,LDT,right,1.6840204902680398,0,,,right,0,1.6840204902680398,,,,,,,,,,,,,,,,,,,,,,1070,2019_Mar_14_1402,mf_amp_cond2,3.0.4,60.00384890728228,
penalty,&&&&&&&,left,authority.vice,,,,,,,,0,142,142,128,,,,,,,,,,,,,,,,,,,,,LDT,right,1.083864234655266,0,,,right,0,1.083864234655266,,,,,,,,,,,,,,,,,,,,,,1070,2019_Mar_14_1402,mf_amp_cond2,3.0.4,60.00384890728228,
reelectiob,&&&&&&&&&&,right,nonword,,,,,,,,0,143,143,97,,,,,,,,,,,,,,,,,,,,,LDT,left,1.417239368717219,0,,,left,0,1.417239368717219,,,,,,,,,,,,,,,,,,,,,,1070,2019_Mar_14_1402,mf_amp_cond2,3.0.4,60.00384890728228,
victims,&&&&&&&,left,care.vice,,,,,,,,0,144,144,32,,,,,,,,,,,,,,,,,,,,,LDT,right,0.6837594228036323,0,,,right,0,0.6837594228036323,,,,,,,,,,,,,,,,,,,,,,1070,2019_Mar_14_1402,mf_amp_cond2,3.0.4,60.00384890728228,
thabbily,&&&&&&&&,right,nonword,,,,,,,,0,145,145,60,,,,,,,,,,,,,,,,,,,,,LDT,left,1.0171756092429405,0,,,left,0,1.0171756092429405,,,,,,,,,,,,,,,,,,,,,,1070,2019_Mar_14_1402,mf_amp_cond2,3.0.4,60.00384890728228,
uller,&&&&&,right,nonword,,,,,,,,0,146,146,181,,,,,,,,,,,,,,,,,,,,,LDT,right,0.5837211927769204,1,,,right,1,0.5837211927769204,,,,,,,,,,,,,,,,,,,,,,1070,2019_Mar_14_1402,mf_amp_cond2,3.0.4,60.00384890728228,
hereby,&&&&&&,left,neutral,,,,,,,,0,147,147,100,,,,,,,,,,,,,,,,,,,,,LDT,left,0.6170534784193933,1,,,left,1,0.6170534784193933,,,,,,,,,,,,,,,,,,,,,,1070,2019_Mar_14_1402,mf_amp_cond2,3.0.4,60.00384890728228,
commitment,&&&&&&&&&&,left,sanctity.virtue,,,,,,,,0,148,148,39,,,,,,,,,,,,,,,,,,,,,LDT,right,0.7169999820396242,0,,,right,0,0.7169999820396242,,,,,,,,,,,,,,,,,,,,,,1070,2019_Mar_14_1402,mf_amp_cond2,3.0.4,60.00384890728228,
mecan,&&&&&,right,nonword,,,,,,,,0,149,149,71,,,,,,,,,,,,,,,,,,,,,LDT,right,0.7004404791839534,1,,,right,1,0.7004404791839534,,,,,,,,,,,,,,,,,,,,,,1070,2019_Mar_14_1402,mf_amp_cond2,3.0.4,60.00384890728228,
officers,&&&&&&&&,left,authority.vice,,,,,,,,0,150,150,161,,,,,,,,,,,,,,,,,,,,,LDT,left,1.4672944045607892,1,,,left,1,1.4672944045607892,,,,,,,,,,,,,,,,,,,,,,1070,2019_Mar_14_1402,mf_amp_cond2,3.0.4,60.00384890728228,
both,&&&&,left,neutral,,,,,,,,0,151,151,57,,,,,,,,,,,,,,,,,,,,,LDT,right,0.31697021906575173,0,,,right,0,0.31697021906575173,,,,,,,,,,,,,,,,,,,,,,1070,2019_Mar_14_1402,mf_amp_cond2,3.0.4,60.00384890728228,
abointment,&&&&&&&&&&,right,nonword,,,,,,,,0,152,152,34,,,,,,,,,,,,,,,,,,,,,LDT,right,0.6504114217977985,1,,,right,1,0.6504114217977985,,,,,,,,,,,,,,,,,,,,,,1070,2019_Mar_14_1402,mf_amp_cond2,3.0.4,60.00384890728228,
thru,&&&&,left,neutral,,,,,,,,0,153,153,23,,,,,,,,,,,,,,,,,,,,,LDT,right,1.2839115090341693,0,,,right,0,1.2839115090341693,,,,,,,,,,,,,,,,,,,,,,1070,2019_Mar_14_1402,mf_amp_cond2,3.0.4,60.00384890728228,
also,&&&&,left,neutral,,,,,,,,0,154,154,143,,,,,,,,,,,,,,,,,,,,,LDT,left,0.45035965731517535,1,,,left,1,0.45035965731517535,,,,,,,,,,,,,,,,,,,,,,1070,2019_Mar_14_1402,mf_amp_cond2,3.0.4,60.00384890728228,
itself,&&&&&&,left,neutral,,,,,,,,0,155,155,66,,,,,,,,,,,,,,,,,,,,,LDT,right,2.700927655447458,0,,,right,0,2.700927655447458,,,,,,,,,,,,,,,,,,,,,,1070,2019_Mar_14_1402,mf_amp_cond2,3.0.4,60.00384890728228,
promised,&&&&&&&&,left,loyalty.virtue,,,,,,,,0,156,156,152,,,,,,,,,,,,,,,,,,,,,LDT,right,0.5337081714758369,0,,,right,0,0.5337081714758369,,,,,,,,,,,,,,,,,,,,,,1070,2019_Mar_14_1402,mf_amp_cond2,3.0.4,60.00384890728228,
somehow,&&&&&&&,left,neutral,,,,,,,,0,157,157,28,,,,,,,,,,,,,,,,,,,,,LDT,right,1.6006463183714459,0,,,right,0,1.6006463183714459,,,,,,,,,,,,,,,,,,,,,,1070,2019_Mar_14_1402,mf_amp_cond2,3.0.4,60.00384890728228,
godlaness,&&&&&&&&&,right,nonword,,,,,,,,0,158,158,76,,,,,,,,,,,,,,,,,,,,,LDT,left,3.034356991476443,0,,,left,0,3.034356991476443,,,,,,,,,,,,,,,,,,,,,,1070,2019_Mar_14_1402,mf_amp_cond2,3.0.4,60.00384890728228,
openet,&&&&&&,None,nonword,,,,,,,,0,159,159,18,,,,,,,,,,,,,,,,,,,,,LDT,right,0.5503876242476053,0,,,right,0,0.5503876242476053,,,,,,,,,,,,,,,,,,,,,,1070,2019_Mar_14_1402,mf_amp_cond2,3.0.4,60.00384890728228,
papert,&&&&&&,right,nonword,,,,,,,,0,160,160,105,,,,,,,,,,,,,,,,,,,,,LDT,right,0.8504622241150628,1,,,right,1,0.8504622241150628,,,,,,,,,,,,,,,,,,,,,,1070,2019_Mar_14_1402,mf_amp_cond2,3.0.4,60.00384890728228,
seem,&&&&,left,neutral,,,,,,,,0,161,161,104,,,,,,,,,,,,,,,,,,,,,LDT,right,0.5670545688731181,0,,,right,0,0.5670545688731181,,,,,,,,,,,,,,,,,,,,,,1070,2019_Mar_14_1402,mf_amp_cond2,3.0.4,60.00384890728228,
pharing,&&&&&&&,right,nonword,,,,,,,,0,162,162,136,,,,,,,,,,,,,,,,,,,,,LDT,right,0.7170663714316561,1,,,right,1,0.7170663714316561,,,,,,,,,,,,,,,,,,,,,,1070,2019_Mar_14_1402,mf_amp_cond2,3.0.4,60.00384890728228,
clattening,&&&&&&&&&&,right,nonword,,,,,,,,0,163,163,113,,,,,,,,,,,,,,,,,,,,,LDT,right,0.9171659234475555,1,,,right,1,0.9171659234475555,,,,,,,,,,,,,,,,,,,,,,1070,2019_Mar_14_1402,mf_amp_cond2,3.0.4,60.00384890728228,
myself,&&&&&&,left,neutral,,,,,,,,0,164,164,178,,,,,,,,,,,,,,,,,,,,,LDT,right,0.6837385758929031,0,,,right,0,0.6837385758929031,,,,,,,,,,,,,,,,,,,,,,1070,2019_Mar_14_1402,mf_amp_cond2,3.0.4,60.00384890728228,
vicissifude,&&&&&&&&&&&,right,nonword,,,,,,,,0,165,165,153,,,,,,,,,,,,,,,,,,,,,LDT,right,9.652688545873616,1,,,right,1,9.652688545873616,,,,,,,,,,,,,,,,,,,,,,1070,2019_Mar_14_1402,mf_amp_cond2,3.0.4,60.00384890728228,
yane,&&&&,right,nonword,,,,,,,,0,166,166,180,,,,,,,,,,,,,,,,,,,,,LDT,right,5.168216928461106,1,,,right,1,5.168216928461106,,,,,,,,,,,,,,,,,,,,,,1070,2019_Mar_14_1402,mf_amp_cond2,3.0.4,60.00384890728228,
touls,&&&&&,right,nonword,,,,,,,,0,167,167,102,,,,,,,,,,,,,,,,,,,,,LDT,left,6.251830679468185,0,,,left,0,6.251830679468185,,,,,,,,,,,,,,,,,,,,,,1070,2019_Mar_14_1402,mf_amp_cond2,3.0.4,60.00384890728228,
accused,&&&&&&&,left,fairness.vice,,,,,,,,0,168,168,54,,,,,,,,,,,,,,,,,,,,,LDT,right,8.502416958737285,0,,,right,0,8.502416958737285,,,,,,,,,,,,,,,,,,,,,,1070,2019_Mar_14_1402,mf_amp_cond2,3.0.4,60.00384890728228,
failure,&&&&&&&,left,loyalty.vice,,,,,,,,0,169,169,148,,,,,,,,,,,,,,,,,,,,,LDT,right,2.4509148265792646,0,,,right,0,2.4509148265792646,,,,,,,,,,,,,,,,,,,,,,1070,2019_Mar_14_1402,mf_amp_cond2,3.0.4,60.00384890728228,
bycled,&&&&&&,None,nonword,,,,,,,,0,170,170,176,,,,,,,,,,,,,,,,,,,,,LDT,right,0.9171890154100311,0,,,right,0,0.9171890154100311,,,,,,,,,,,,,,,,,,,,,,1070,2019_Mar_14_1402,mf_amp_cond2,3.0.4,60.00384890728228,
eight,&&&&&,left,neutral,,,,,,,,0,171,171,119,,,,,,,,,,,,,,,,,,,,,LDT,left,0.5837231171069561,1,,,left,1,0.5837231171069561,,,,,,,,,,,,,,,,,,,,,,1070,2019_Mar_14_1402,mf_amp_cond2,3.0.4,60.00384890728228,
racist,&&&&&&,left,sanctity.vice,,,,,,,,0,172,172,142,,,,,,,,,,,,,,,,,,,,,LDT,right,0.5837577550507831,0,,,right,0,0.5837577550507831,,,,,,,,,,,,,,,,,,,,,,1070,2019_Mar_14_1402,mf_amp_cond2,3.0.4,60.00384890728228,
egpeditious,&&&&&&&&&&&,right,nonword,,,,,,,,0,173,173,91,,,,,,,,,,,,,,,,,,,,,LDT,right,0.9004848670672345,1,,,right,1,0.9004848670672345,,,,,,,,,,,,,,,,,,,,,,1070,2019_Mar_14_1402,mf_amp_cond2,3.0.4,60.00384890728228,
gournful,&&&&&&&&,right,nonword,,,,,,,,0,174,174,171,,,,,,,,,,,,,,,,,,,,,LDT,right,0.4836977159484377,1,,,right,1,0.4836977159484377,,,,,,,,,,,,,,,,,,,,,,1070,2019_Mar_14_1402,mf_amp_cond2,3.0.4,60.00384890728228,
ning,&&&&,right,nonword,,,,,,,,0,175,175,74,,,,,,,,,,,,,,,,,,,,,LDT,right,0.5170344916946306,1,,,right,1,0.5170344916946306,,,,,,,,,,,,,,,,,,,,,,1070,2019_Mar_14_1402,mf_amp_cond2,3.0.4,60.00384890728228,
credit,&&&&&&,left,fairness.virtue,,,,,,,,0,176,176,44,,,,,,,,,,,,,,,,,,,,,LDT,right,1.2338898282471291,0,,,right,0,1.2338898282471291,,,,,,,,,,,,,,,,,,,,,,1070,2019_Mar_14_1402,mf_amp_cond2,3.0.4,60.00384890728228,
gikely,&&&&&&,right,nonword,,,,,,,,0,177,177,168,,,,,,,,,,,,,,,,,,,,,LDT,left,0.4503121905036096,0,,,left,0,0.4503121905036096,,,,,,,,,,,,,,,,,,,,,,1070,2019_Mar_14_1402,mf_amp_cond2,3.0.4,60.00384890728228,
fangsters,&&&&&&&&&,right,nonword,,,,,,,,0,178,178,195,,,,,,,,,,,,,,,,,,,,,LDT,right,0.6170663072871321,1,,,right,1,0.6170663072871321,,,,,,,,,,,,,,,,,,,,,,1070,2019_Mar_14_1402,mf_amp_cond2,3.0.4,60.00384890728228,
precificity,&&&&&&&&&&&,right,nonword,,,,,,,,0,179,179,160,,,,,,,,,,,,,,,,,,,,,LDT,right,0.7170779174127802,1,,,right,1,0.7170779174127802,,,,,,,,,,,,,,,,,,,,,,1070,2019_Mar_14_1402,mf_amp_cond2,3.0.4,60.00384890728228,
anything,&&&&&&&&,left,neutral,,,,,,,,0,180,180,94,,,,,,,,,,,,,,,,,,,,,LDT,right,0.7671143513980496,0,,,right,0,0.7671143513980496,,,,,,,,,,,,,,,,,,,,,,1070,2019_Mar_14_1402,mf_amp_cond2,3.0.4,60.00384890728228,
discovars,&&&&&&&&&,right,nonword,,,,,,,,0,181,181,53,,,,,,,,,,,,,,,,,,,,,LDT,right,1.1005205954647863,1,,,right,1,1.1005205954647863,,,,,,,,,,,,,,,,,,,,,,1070,2019_Mar_14_1402,mf_amp_cond2,3.0.4,60.00384890728228,
threatened,&&&&&&&&&&,left,fairness.vice,,,,,,,,0,182,182,56,,,,,,,,,,,,,,,,,,,,,LDT,right,0.7837758437544835,0,,,right,0,0.7837758437544835,,,,,,,,,,,,,,,,,,,,,,1070,2019_Mar_14_1402,mf_amp_cond2,3.0.4,60.00384890728228,
wherever,&&&&&&&&,left,neutral,,,,,,,,0,183,183,45,,,,,,,,,,,,,,,,,,,,,LDT,right,0.8838012449134567,0,,,right,0,0.8838012449134567,,,,,,,,,,,,,,,,,,,,,,1070,2019_Mar_14_1402,mf_amp_cond2,3.0.4,60.00384890728228,
ability,&&&&&&&,left,authority.virtue,,,,,,,,0,184,184,48,,,,,,,,,,,,,,,,,,,,,LDT,left,0.9837904045200503,1,,,left,1,0.9837904045200503,,,,,,,,,,,,,,,,,,,,,,1070,2019_Mar_14_1402,mf_amp_cond2,3.0.4,60.00384890728228,
faspberry,&&&&&&&&&,None,nonword,,,,,,,,0,185,185,29,,,,,,,,,,,,,,,,,,,,,LDT,right,1.1839059926207938,0,,,right,0,1.1839059926207938,,,,,,,,,,,,,,,,,,,,,,1070,2019_Mar_14_1402,mf_amp_cond2,3.0.4,60.00384890728228,
give,&&&&,left,neutral,,,,,,,,0,186,186,84,,,,,,,,,,,,,,,,,,,,,LDT,right,0.7337737269915579,0,,,right,0,0.7337737269915579,,,,,,,,,,,,,,,,,,,,,,1070,2019_Mar_14_1402,mf_amp_cond2,3.0.4,60.00384890728228,
celebrated,&&&&&&&&&&,left,authority.virtue,,,,,,,,0,187,187,83,,,,,,,,,,,,,,,,,,,,,LDT,left,1.0171653461486585,1,,,left,1,1.0171653461486585,,,,,,,,,,,,,,,,,,,,,,1070,2019_Mar_14_1402,mf_amp_cond2,3.0.4,60.00384890728228,
prones,&&&&&&,right,nonword,,,,,,,,0,188,188,99,,,,,,,,,,,,,,,,,,,,,LDT,right,0.5003839038756723,1,,,right,1,0.5003839038756723,,,,,,,,,,,,,,,,,,,,,,1070,2019_Mar_14_1402,mf_amp_cond2,3.0.4,60.00384890728228,
prosecution,&&&&&&&&&&&,left,authority.vice,,,,,,,,0,189,189,151,,,,,,,,,,,,,,,,,,,,,LDT,right,0.5837346630883076,0,,,right,0,0.5837346630883076,,,,,,,,,,,,,,,,,,,,,,1070,2019_Mar_14_1402,mf_amp_cond2,3.0.4,60.00384890728228,
synchronazers,&&&&&&&&&&&&&,right,nonword,,,,,,,,0,190,190,46,,,,,,,,,,,,,,,,,,,,,LDT,left,1.1005424045404197,0,,,left,0,1.1005424045404197,,,,,,,,,,,,,,,,,,,,,,1070,2019_Mar_14_1402,mf_amp_cond2,3.0.4,60.00384890728228,
gedious,&&&&&&&,right,nonword,,,,,,,,0,191,191,174,,,,,,,,,,,,,,,,,,,,,LDT,left,0.7504291256357192,0,,,left,0,0.7504291256357192,,,,,,,,,,,,,,,,,,,,,,1070,2019_Mar_14_1402,mf_amp_cond2,3.0.4,60.00384890728228,
nomaric,&&&&&&&,None,nonword,,,,,,,,0,192,192,182,,,,,,,,,,,,,,,,,,,,,LDT,left,1.0505078948854134,0,,,left,0,1.0505078948854134,,,,,,,,,,,,,,,,,,,,,,1070,2019_Mar_14_1402,mf_amp_cond2,3.0.4,60.00384890728228,
care,&&&&,left,care.virtue,,,,,,,,0,193,193,175,,,,,,,,,,,,,,,,,,,,,LDT,right,0.6504284200480015,0,,,right,0,0.6504284200480015,,,,,,,,,,,,,,,,,,,,,,1070,2019_Mar_14_1402,mf_amp_cond2,3.0.4,60.00384890728228,
terrorists,&&&&&&&&&&,left,fairness.vice,,,,,,,,0,194,194,38,,,,,,,,,,,,,,,,,,,,,LDT,right,0.9338104175540138,0,,,right,0,0.9338104175540138,,,,,,,,,,,,,,,,,,,,,,1070,2019_Mar_14_1402,mf_amp_cond2,3.0.4,60.00384890728228,
gandbrake,&&&&&&&&&,right,nonword,,,,,,,,0,195,195,15,,,,,,,,,,,,,,,,,,,,,LDT,left,1.000496156471172,0,,,left,0,1.000496156471172,,,,,,,,,,,,,,,,,,,,,,1070,2019_Mar_14_1402,mf_amp_cond2,3.0.4,60.00384890728228,
oam,&&&,right,nonword,,,,,,,,0,196,196,159,,,,,,,,,,,,,,,,,,,,,LDT,right,0.6504040451986839,1,,,right,1,0.6504040451986839,,,,,,,,,,,,,,,,,,,,,,1070,2019_Mar_14_1402,mf_amp_cond2,3.0.4,60.00384890728228,
done,&&&&,left,neutral,,,,,,,,0,197,197,183,,,,,,,,,,,,,,,,,,,,,LDT,right,0.8336400501866592,0,,,right,0,0.8336400501866592,,,,,,,,,,,,,,,,,,,,,,1070,2019_Mar_14_1402,mf_amp_cond2,3.0.4,60.00384890728228,
chonograph,&&&&&&&&&&,right,nonword,,,,,,,,0,198,198,147,,,,,,,,,,,,,,,,,,,,,LDT,left,1.5506352214006256,0,,,left,0,1.5506352214006256,,,,,,,,,,,,,,,,,,,,,,1070,2019_Mar_14_1402,mf_amp_cond2,3.0.4,60.00384890728228,
besides,&&&&&&&,left,neutral,,,,,,,,0,199,199,179,,,,,,,,,,,,,,,,,,,,,LDT,right,0.733779179260182,0,,,right,0,0.733779179260182,,,,,,,,,,,,,,,,,,,,,,1070,2019_Mar_14_1402,mf_amp_cond2,3.0.4,60.00384890728228,
,,,,,,,,,,,,,,,,,,,,,,,,,,,,,,,,,,,,,,,,,,,,6,8.254,,,,,,,,,,,,,,,,,,,,1070,2019_Mar_14_1402,mf_amp_cond2,3.0.4,60.00384890728228,
,,,,,,,,,,,,,,,,,,,,,,,,,,,,,,,,,,,,,,,,,,,,,,right,1.534005159770686,,,,,,,,,,,,,,,,,,1070,2019_Mar_14_1402,mf_amp_cond2,3.0.4,60.00384890728228,
car,&&&&&&&&,,,cemtuper,,,,,,,,,,,0,0,0,0,,,,,,,,,,,,,,,,,AMP_prac,right,4.001240872260496,,,,,,,,,,,right,4.001240872260496,,,,,,,,,,,,,,,,1070,2019_Mar_14_1402,mf_amp_cond2,3.0.4,60.00384890728228,
keyboard,&&&&,,,senk,,,,,,,,,,,0,1,1,2,,,,,,,,,,,,,,,,,AMP_prac,right,1.8840578222739168,,,,,,,,,,,right,1.8840578222739168,,,,,,,,,,,,,,,,1070,2019_Mar_14_1402,mf_amp_cond2,3.0.4,60.00384890728228,
banana,&&&&&&,,,kacket,,,,,,,,,,,0,2,2,1,,,,,,,,,,,,,,,,,AMP_prac,right,1.3172360973555897,,,,,,,,,,,right,1.3172360973555897,,,,,,,,,,,,,,,,1070,2019_Mar_14_1402,mf_amp_cond2,3.0.4,60.00384890728228,
scarf,&&&&&&&&,,,bisebell,,,,,,,,,,,0,3,3,3,,,,,,,,,,,,,,,,,AMP_prac,right,5.618338289552867,,,,,,,,,,,right,5.618338289552867,,,,,,,,,,,,,,,,1070,2019_Mar_14_1402,mf_amp_cond2,3.0.4,60.00384890728228,
,,,,,,,,,,,,,,,,,,,,,,,,,,,,,,,,,,,,,,,,,,,,,,,,,,right,1.4006285503892286,,,,,,,,,,,,,,1070,2019_Mar_14_1402,mf_amp_cond2,3.0.4,60.00384890728228,
fighters,&&&&&&,right,authority.vice,forepo,,,,,,,,,,,,,,,0,0,0,259,,,,,,,,,,,,,AMP,left,1.200544072293269,0,,,,,,,,,,,,,,left,0,1.200544072293269,,,,,,,,,,,1070,2019_Mar_14_1402,mf_amp_cond2,3.0.4,60.00384890728228,
fontacts,&&&&&&&&&&&&,None,nonword,bruthfulness,,,,,,,,,,,,,,,0,1,1,263,,,,,,,,,,,,,AMP,left,0.7671021639732771,0,,,,,,,,,,,,,,left,0,0.7671021639732771,,,,,,,,,,,1070,2019_Mar_14_1402,mf_amp_cond2,3.0.4,60.00384890728228,
encourage,&&&&&&&&,left,authority.virtue,glacenta,,,,,,,,,,,,,,,0,2,2,264,,,,,,,,,,,,,AMP,right,0.383673597676534,0,,,,,,,,,,,,,,right,0,0.383673597676534,,,,,,,,,,,1070,2019_Mar_14_1402,mf_amp_cond2,3.0.4,60.00384890728228,
army,&&&&&&,right,loyalty.vice,strofe,,,,,,,,,,,,,,,0,3,3,311,,,,,,,,,,,,,AMP,right,2.367514034781607,1,,,,,,,,,,,,,,right,1,2.367514034781607,,,,,,,,,,,1070,2019_Mar_14_1402,mf_amp_cond2,3.0.4,60.00384890728228,
hand,&&&&&&&&&&&&,left,sanctity.virtue,unreflectuve,,,,,,,,,,,,,,,0,4,4,85,,,,,,,,,,,,,AMP,right,2.5675651578205816,0,,,,,,,,,,,,,,right,0,2.5675651578205816,,,,,,,,,,,1070,2019_Mar_14_1402,mf_amp_cond2,3.0.4,60.00384890728228,
hope,&&&&&&&&&,left,loyalty.virtue,chressing,,,,,,,,,,,,,,,0,5,5,270,,,,,,,,,,,,,AMP,right,0.6003887788456268,0,,,,,,,,,,,,,,right,0,0.6003887788456268,,,,,,,,,,,1070,2019_Mar_14_1402,mf_amp_cond2,3.0.4,60.00384890728228,
compassion,&&&&,left,care.virtue,coom,,,,,,,,,,,,,,,0,6,6,265,,,,,,,,,,,,,AMP,right,0.4670140937944325,0,,,,,,,,,,,,,,right,0,0.4670140937944325,,,,,,,,,,,1070,2019_Mar_14_1402,mf_amp_cond2,3.0.4,60.00384890728228,
party,&&&&&&&&&&&,left,loyalty.virtue,hefurbished,,,,,,,,,,,,,,,0,7,7,144,,,,,,,,,,,,,AMP,right,2.3675012059136407,0,,,,,,,,,,,,,,right,0,2.3675012059136407,,,,,,,,,,,1070,2019_Mar_14_1402,mf_amp_cond2,3.0.4,60.00384890728228,
interests,&&&&&&&&&,left,fairness.virtue,brotesque,,,,,,,,,,,,,,,0,8,8,315,,,,,,,,,,,,,AMP,right,0.3503794779164764,0,,,,,,,,,,,,,,right,0,0.3503794779164764,,,,,,,,,,,1070,2019_Mar_14_1402,mf_amp_cond2,3.0.4,60.00384890728228,
betrayal,&&&&&&&&,right,loyalty.vice,hescribe,,,,,,,,,,,,,,,0,9,9,25,,,,,,,,,,,,,AMP,left,0.33365897276689793,0,,,,,,,,,,,,,,left,0,0.33365897276689793,,,,,,,,,,,1070,2019_Mar_14_1402,mf_amp_cond2,3.0.4,60.00384890728228,
troops,&&&&&&,right,loyalty.vice,tislay,,,,,,,,,,,,,,,0,10,10,32,,,,,,,,,,,,,AMP,right,0.8004671632293139,1,,,,,,,,,,,,,,right,1,0.8004671632293139,,,,,,,,,,,1070,2019_Mar_14_1402,mf_amp_cond2,3.0.4,60.00384890728228,
honored,&&&&&&&&&&&,left,authority.virtue,shoirmaster,,,,,,,,,,,,,,,0,11,11,171,,,,,,,,,,,,,AMP,right,1.1838691096252205,0,,,,,,,,,,,,,,right,0,1.1838691096252205,,,,,,,,,,,1070,2019_Mar_14_1402,mf_amp_cond2,3.0.4,60.00384890728228,
violations,&&&&&&&&,right,sanctity.vice,gowlands,,,,,,,,,,,,,,,0,12,12,9,,,,,,,,,,,,,AMP,right,1.1505403519215633,1,,,,,,,,,,,,,,right,1,1.1505403519215633,,,,,,,,,,,1070,2019_Mar_14_1402,mf_amp_cond2,3.0.4,60.00384890728228,
party,&&&&&&&,left,loyalty.virtue,chadows,,,,,,,,,,,,,,,0,13,13,281,,,,,,,,,,,,,AMP,right,2.417547261549771,0,,,,,,,,,,,,,,right,0,2.417547261549771,,,,,,,,,,,1070,2019_Mar_14_1402,mf_amp_cond2,3.0.4,60.00384890728228,
emassion,&&&&&&&&,None,nonword,gowlands,,,,,,,,,,,,,,,0,14,14,287,,,,,,,,,,,,,AMP,right,0.6670732348759429,0,,,,,,,,,,,,,,right,0,0.6670732348759429,,,,,,,,,,,1070,2019_Mar_14_1402,mf_amp_cond2,3.0.4,60.00384890728228,
fear,&&&&&&&&&&,right,sanctity.vice,gationwide,,,,,,,,,,,,,,,0,15,15,134,,,,,,,,,,,,,AMP,left,0.6004109086429708,0,,,,,,,,,,,,,,left,0,0.6004109086429708,,,,,,,,,,,1070,2019_Mar_14_1402,mf_amp_cond2,3.0.4,60.00384890728228,
prison,&&&&&,right,fairness.vice,ablow,,,,,,,,,,,,,,,0,16,16,69,,,,,,,,,,,,,AMP,left,0.9837948946235429,0,,,,,,,,,,,,,,left,0,0.9837948946235429,,,,,,,,,,,1070,2019_Mar_14_1402,mf_amp_cond2,3.0.4,60.00384890728228,
spag,&&&&&&&&&&&,None,nonword,fornicalion,,,,,,,,,,,,,,,0,17,17,37,,,,,,,,,,,,,AMP,left,0.9338117004408559,0,,,,,,,,,,,,,,left,0,0.9338117004408559,,,,,,,,,,,1070,2019_Mar_14_1402,mf_amp_cond2,3.0.4,60.00384890728228,
growth,&&&&&&&&&&&&&,left,care.virtue,idexpressible,,,,,,,,,,,,,,,0,18,18,159,,,,,,,,,,,,,AMP,right,0.5337553175659195,0,,,,,,,,,,,,,,right,0,0.5337553175659195,,,,,,,,,,,1070,2019_Mar_14_1402,mf_amp_cond2,3.0.4,60.00384890728228,
love,&&&&&&&&&,left,loyalty.virtue,unscothed,,,,,,,,,,,,,,,0,19,19,33,,,,,,,,,,,,,AMP,right,0.36701755758872423,0,,,,,,,,,,,,,,right,0,0.36701755758872423,,,,,,,,,,,1070,2019_Mar_14_1402,mf_amp_cond2,3.0.4,60.00384890728228,
fegard,&&&&&&&,None,nonword,allears,,,,,,,,,,,,,,,0,20,20,86,,,,,,,,,,,,,AMP,left,1.11719716174116,0,,,,,,,,,,,,,,left,0,1.11719716174116,,,,,,,,,,,1070,2019_Mar_14_1402,mf_amp_cond2,3.0.4,60.00384890728228,
prison,&&&&&&&&&&,right,fairness.vice,supervuned,,,,,,,,,,,,,,,0,21,21,312,,,,,,,,,,,,,AMP,left,1.6673230770809369,0,,,,,,,,,,,,,,left,0,1.6673230770809369,,,,,,,,,,,1070,2019_Mar_14_1402,mf_amp_cond2,3.0.4,60.00384890728228,
peace,&&&&&,left,care.virtue,framo,,,,,,,,,,,,,,,0,22,22,238,,,,,,,,,,,,,AMP,right,0.3169763127780243,0,,,,,,,,,,,,,,right,0,0.3169763127780243,,,,,,,,,,,1070,2019_Mar_14_1402,mf_amp_cond2,3.0.4,60.00384890728228,
values,&&&&&&&,left,sanctity.virtue,smapper,,,,,,,,,,,,,,,0,23,23,17,,,,,,,,,,,,,AMP,right,0.43367892165656485,0,,,,,,,,,,,,,,right,0,0.43367892165656485,,,,,,,,,,,1070,2019_Mar_14_1402,mf_amp_cond2,3.0.4,60.00384890728228,
encourage,&&&&&&&&&,left,authority.virtue,taxpayung,,,,,,,,,,,,,,,0,24,24,175,,,,,,,,,,,,,AMP,right,0.35031982367991077,0,,,,,,,,,,,,,,right,0,0.35031982367991077,,,,,,,,,,,1070,2019_Mar_14_1402,mf_amp_cond2,3.0.4,60.00384890728228,
drug,&&&&&&&&,right,sanctity.vice,sliptery,,,,,,,,,,,,,,,0,25,25,251,,,,,,,,,,,,,AMP,left,1.2505471512215536,0,,,,,,,,,,,,,,left,0,1.2505471512215536,,,,,,,,,,,1070,2019_Mar_14_1402,mf_amp_cond2,3.0.4,60.00384890728228,
leact,&&&&&&&,None,nonword,reviked,,,,,,,,,,,,,,,0,26,26,267,,,,,,,,,,,,,AMP,left,1.0505152714843007,0,,,,,,,,,,,,,,left,0,1.0505152714843007,,,,,,,,,,,1070,2019_Mar_14_1402,mf_amp_cond2,3.0.4,60.00384890728228,
embrace,&&&,left,authority.virtue,mih,,,,,,,,,,,,,,,0,27,27,304,,,,,,,,,,,,,AMP,right,0.4170042797102269,0,,,,,,,,,,,,,,right,0,0.4170042797102269,,,,,,,,,,,1070,2019_Mar_14_1402,mf_amp_cond2,3.0.4,60.00384890728228,
respect,&&&&&&&&&&&&,left,sanctity.virtue,rorroborated,,,,,,,,,,,,,,,0,28,28,66,,,,,,,,,,,,,AMP,right,0.4170209572389467,0,,,,,,,,,,,,,,right,0,0.4170209572389467,,,,,,,,,,,1070,2019_Mar_14_1402,mf_amp_cond2,3.0.4,60.00384890728228,
illegal,&&&&&&&&,right,fairness.vice,ebbitter,,,,,,,,,,,,,,,0,29,29,103,,,,,,,,,,,,,AMP,left,0.35032238945359495,0,,,,,,,,,,,,,,left,0,0.35032238945359495,,,,,,,,,,,1070,2019_Mar_14_1402,mf_amp_cond2,3.0.4,60.00384890728228,
emassion,&&&&&&&,None,nonword,hatigue,,,,,,,,,,,,,,,0,30,30,20,,,,,,,,,,,,,AMP,left,2.217462462732101,0,,,,,,,,,,,,,,left,0,2.217462462732101,,,,,,,,,,,1070,2019_Mar_14_1402,mf_amp_cond2,3.0.4,60.00384890728228,
interests,&&&&&&&&,left,fairness.virtue,sliptery,,,,,,,,,,,,,,,0,31,31,75,,,,,,,,,,,,,AMP,right,0.26696008425983564,0,,,,,,,,,,,,,,right,0,0.26696008425983564,,,,,,,,,,,1070,2019_Mar_14_1402,mf_amp_cond2,3.0.4,60.00384890728228,
fontacts,&&&&&,None,nonword,infet,,,,,,,,,,,,,,,0,32,32,235,,,,,,,,,,,,,AMP,left,0.43353812482996545,0,,,,,,,,,,,,,,left,0,0.43353812482996545,,,,,,,,,,,1070,2019_Mar_14_1402,mf_amp_cond2,3.0.4,60.00384890728228,
party,&&&&&,left,loyalty.virtue,lenon,,,,,,,,,,,,,,,0,33,33,27,,,,,,,,,,,,,AMP,right,0.30031482042136304,0,,,,,,,,,,,,,,right,0,0.30031482042136304,,,,,,,,,,,1070,2019_Mar_14_1402,mf_amp_cond2,3.0.4,60.00384890728228,
help,&&&&&&,left,care.virtue,Cunday,,,,,,,,,,,,,,,0,34,34,49,,,,,,,,,,,,,AMP,right,0.36700729449444225,0,,,,,,,,,,,,,,right,0,0.36700729449444225,,,,,,,,,,,1070,2019_Mar_14_1402,mf_amp_cond2,3.0.4,60.00384890728228,
useful,&&&&&&&&&&&,left,authority.virtue,blunderints,,,,,,,,,,,,,,,0,35,35,130,,,,,,,,,,,,,AMP,right,0.5670552103165392,0,,,,,,,,,,,,,,right,0,0.5670552103165392,,,,,,,,,,,1070,2019_Mar_14_1402,mf_amp_cond2,3.0.4,60.00384890728228,
victim,&&&&&&,right,care.vice,Boeinf,,,,,,,,,,,,,,,0,36,36,88,,,,,,,,,,,,,AMP,left,0.3836671832425509,0,,,,,,,,,,,,,,left,0,0.3836671832425509,,,,,,,,,,,1070,2019_Mar_14_1402,mf_amp_cond2,3.0.4,60.00384890728228,
corruption,&&&&&&&&&&&&,right,sanctity.vice,gusinesslike,,,,,,,,,,,,,,,0,37,37,321,,,,,,,,,,,,,AMP,right,0.4670156974029851,1,,,,,,,,,,,,,,right,1,0.4670156974029851,,,,,,,,,,,1070,2019_Mar_14_1402,mf_amp_cond2,3.0.4,60.00384890728228,
rejected,&&&&&,right,authority.vice,tabin,,,,,,,,,,,,,,,0,38,38,57,,,,,,,,,,,,,AMP,left,2.8509461931616897,0,,,,,,,,,,,,,,left,0,2.8509461931616897,,,,,,,,,,,1070,2019_Mar_14_1402,mf_amp_cond2,3.0.4,60.00384890728228,
actively,&&&&&&&&&&&,left,authority.virtue,shoirmaster,,,,,,,,,,,,,,,0,39,39,50,,,,,,,,,,,,,AMP,right,2.2341342181832715,0,,,,,,,,,,,,,,right,0,2.2341342181832715,,,,,,,,,,,1070,2019_Mar_14_1402,mf_amp_cond2,3.0.4,60.00384890728228,
drug,&&&&&&&&&,right,sanctity.vice,reprisols,,,,,,,,,,,,,,,0,40,40,237,,,,,,,,,,,,,AMP,left,0.35032655883583175,0,,,,,,,,,,,,,,left,0,0.35032655883583175,,,,,,,,,,,1070,2019_Mar_14_1402,mf_amp_cond2,3.0.4,60.00384890728228,
spag,&&&&&&&&,None,nonword,gowlands,,,,,,,,,,,,,,,0,41,41,109,,,,,,,,,,,,,AMP,left,2.034083095143842,0,,,,,,,,,,,,,,left,0,2.034083095143842,,,,,,,,,,,1070,2019_Mar_14_1402,mf_amp_cond2,3.0.4,60.00384890728228,
leact,&&&&&&,None,nonword,sgrawl,,,,,,,,,,,,,,,0,42,42,108,,,,,,,,,,,,,AMP,left,0.43368020454340694,0,,,,,,,,,,,,,,left,0,0.43368020454340694,,,,,,,,,,,1070,2019_Mar_14_1402,mf_amp_cond2,3.0.4,60.00384890728228,
arrests,&&&&&&&,right,authority.vice,emports,,,,,,,,,,,,,,,0,43,43,93,,,,,,,,,,,,,AMP,left,0.5336959840512918,0,,,,,,,,,,,,,,left,0,0.5336959840512918,,,,,,,,,,,1070,2019_Mar_14_1402,mf_amp_cond2,3.0.4,60.00384890728228,
values,&&&&&&&&&&,left,sanctity.virtue,honstables,,,,,,,,,,,,,,,0,44,44,205,,,,,,,,,,,,,AMP,left,0.9504805693964045,1,,,,,,,,,,,,,,left,1,0.9504805693964045,,,,,,,,,,,1070,2019_Mar_14_1402,mf_amp_cond2,3.0.4,60.00384890728228,
honored,&&&&&&&&&&&,left,authority.virtue,shoirmaster,,,,,,,,,,,,,,,0,45,45,279,,,,,,,,,,,,,AMP,right,0.23362715717416904,0,,,,,,,,,,,,,,right,0,0.23362715717416904,,,,,,,,,,,1070,2019_Mar_14_1402,mf_amp_cond2,3.0.4,60.00384890728228,
improve,&&&&&,left,care.virtue,ablow,,,,,,,,,,,,,,,0,46,46,256,,,,,,,,,,,,,AMP,right,1.6173758037284642,0,,,,,,,,,,,,,,right,0,1.6173758037284642,,,,,,,,,,,1070,2019_Mar_14_1402,mf_amp_cond2,3.0.4,60.00384890728228,
pleasant,&&&&&&&,None,control,chadows,,,,,,,,,,,,,,,0,47,47,224,,,,,,,,,,,,,AMP,right,0.4670211496718366,0,,,,,,,,,,,,,,right,0,0.4670211496718366,,,,,,,,,,,1070,2019_Mar_14_1402,mf_amp_cond2,3.0.4,60.00384890728228,
hate,&&&&&,right,fairness.vice,atson,,,,,,,,,,,,,,,0,48,48,197,,,,,,,,,,,,,AMP,left,0.2836594217774291,0,,,,,,,,,,,,,,left,0,0.2836594217774291,,,,,,,,,,,1070,2019_Mar_14_1402,mf_amp_cond2,3.0.4,60.00384890728228,
embrace,&&&&&&&&&&,left,authority.virtue,simplustic,,,,,,,,,,,,,,,0,49,49,244,,,,,,,,,,,,,AMP,right,0.4336821288736701,0,,,,,,,,,,,,,,right,0,0.4336821288736701,,,,,,,,,,,1070,2019_Mar_14_1402,mf_amp_cond2,3.0.4,60.00384890728228,
unpleasant,&&&&&&&,None,control,brudent,,,,,,,,,,,,,,,0,50,50,117,,,,,,,,,,,,,AMP,left,0.8171119780577101,0,,,,,,,,,,,,,,left,0,0.8171119780577101,,,,,,,,,,,1070,2019_Mar_14_1402,mf_amp_cond2,3.0.4,60.00384890728228,
win,&&&&&&,left,fairness.virtue,forepo,,,,,,,,,,,,,,,0,51,51,138,,,,,,,,,,,,,AMP,right,0.5503776818748065,0,,,,,,,,,,,,,,right,0,0.5503776818748065,,,,,,,,,,,1070,2019_Mar_14_1402,mf_amp_cond2,3.0.4,60.00384890728228,
safety,&&&&&&&&&&&,left,care.virtue,presentkess,,,,,,,,,,,,,,,0,52,52,222,,,,,,,,,,,,,AMP,right,1.5506294484100636,0,,,,,,,,,,,,,,right,0,1.5506294484100636,,,,,,,,,,,1070,2019_Mar_14_1402,mf_amp_cond2,3.0.4,60.00384890728228,
abuse,&&&&&&&,right,sanctity.vice,smapper,,,,,,,,,,,,,,,0,53,53,115,,,,,,,,,,,,,AMP,left,0.3836684661291656,0,,,,,,,,,,,,,,left,0,0.3836684661291656,,,,,,,,,,,1070,2019_Mar_14_1402,mf_amp_cond2,3.0.4,60.00384890728228,
injured,&&&&&&&&&&,right,care.vice,honstables,,,,,,,,,,,,,,,0,54,54,269,,,,,,,,,,,,,AMP,left,0.4337090694964445,0,,,,,,,,,,,,,,left,0,0.4337090694964445,,,,,,,,,,,1070,2019_Mar_14_1402,mf_amp_cond2,3.0.4,60.00384890728228,
death,&&&&&&&&,right,care.vice,clamorek,,,,,,,,,,,,,,,0,55,55,252,,,,,,,,,,,,,AMP,left,0.31698433082056,0,,,,,,,,,,,,,,left,0,0.31698433082056,,,,,,,,,,,1070,2019_Mar_14_1402,mf_amp_cond2,3.0.4,60.00384890728228,
fear,&&&&&&&&&,right,sanctity.vice,brotesque,,,,,,,,,,,,,,,0,56,56,186,,,,,,,,,,,,,AMP,left,0.4170151842481573,0,,,,,,,,,,,,,,left,0,0.4170151842481573,,,,,,,,,,,1070,2019_Mar_14_1402,mf_amp_cond2,3.0.4,60.00384890728228,
leact,&&&&&,None,nonword,scock,,,,,,,,,,,,,,,0,57,57,61,,,,,,,,,,,,,AMP,left,0.35031982368013814,0,,,,,,,,,,,,,,left,0,0.35031982368013814,,,,,,,,,,,1070,2019_Mar_14_1402,mf_amp_cond2,3.0.4,60.00384890728228,
gondensed,&&&&&&&&&&,None,nonword,frojecting,,,,,,,,,,,,,,,0,58,58,317,,,,,,,,,,,,,AMP,left,0.43368726042081107,0,,,,,,,,,,,,,,left,0,0.43368726042081107,,,,,,,,,,,1070,2019_Mar_14_1402,mf_amp_cond2,3.0.4,60.00384890728228,
black,&&&&&&&&,right,loyalty.vice,lachelor,,,,,,,,,,,,,,,0,59,59,64,,,,,,,,,,,,,AMP,right,1.367283115157079,1,,,,,,,,,,,,,,right,1,1.367283115157079,,,,,,,,,,,1070,2019_Mar_14_1402,mf_amp_cond2,3.0.4,60.00384890728228,
charges,&&&&&&&,right,fairness.vice,reviked,,,,,,,,,,,,,,,0,60,60,89,,,,,,,,,,,,,AMP,left,0.5170351331380516,0,,,,,,,,,,,,,,left,0,0.5170351331380516,,,,,,,,,,,1070,2019_Mar_14_1402,mf_amp_cond2,3.0.4,60.00384890728228,
refused,&&&&&&&&&&,right,authority.vice,lorthwhile,,,,,,,,,,,,,,,0,61,61,126,,,,,,,,,,,,,AMP,left,0.38368674726621066,0,,,,,,,,,,,,,,left,0,0.38368674726621066,,,,,,,,,,,1070,2019_Mar_14_1402,mf_amp_cond2,3.0.4,60.00384890728228,
interests,&&&&&&&,left,fairness.virtue,vurtain,,,,,,,,,,,,,,,0,62,62,101,,,,,,,,,,,,,AMP,right,0.36700184222536336,0,,,,,,,,,,,,,,right,0,0.36700184222536336,,,,,,,,,,,1070,2019_Mar_14_1402,mf_amp_cond2,3.0.4,60.00384890728228,
peaceful,&&&&&&&&&&,left,authority.virtue,elduringly,,,,,,,,,,,,,,,0,63,63,113,,,,,,,,,,,,,AMP,right,0.41701582569157836,0,,,,,,,,,,,,,,right,0,0.41701582569157836,,,,,,,,,,,1070,2019_Mar_14_1402,mf_amp_cond2,3.0.4,60.00384890728228,
respect,&&&&&&&,left,sanctity.virtue,troubla,,,,,,,,,,,,,,,0,64,64,112,,,,,,,,,,,,,AMP,right,0.4503493942208934,0,,,,,,,,,,,,,,right,0,0.4503493942208934,,,,,,,,,,,1070,2019_Mar_14_1402,mf_amp_cond2,3.0.4,60.00384890728228,
riot,&&&&&&&&,right,authority.vice,lachelor,,,,,,,,,,,,,,,0,65,65,152,,,,,,,,,,,,,AMP,left,0.5670443057786088,0,,,,,,,,,,,,,,left,0,0.5670443057786088,,,,,,,,,,,1070,2019_Mar_14_1402,mf_amp_cond2,3.0.4,60.00384890728228,
gondensed,&&&&&&&&&&,None,nonword,supervuned,,,,,,,,,,,,,,,0,66,66,188,,,,,,,,,,,,,AMP,left,1.0004862140986006,0,,,,,,,,,,,,,,left,0,1.0004862140986006,,,,,,,,,,,1070,2019_Mar_14_1402,mf_amp_cond2,3.0.4,60.00384890728228,
army,&&&&&&&&&&&&&,right,loyalty.vice,idexpressible,,,,,,,,,,,,,,,0,67,67,220,,,,,,,,,,,,,AMP,left,1.6673509798690702,0,,,,,,,,,,,,,,left,0,1.6673509798690702,,,,,,,,,,,1070,2019_Mar_14_1402,mf_amp_cond2,3.0.4,60.00384890728228,
arrests,&&&&&&&&,right,authority.vice,clamorek,,,,,,,,,,,,,,,0,68,68,232,,,,,,,,,,,,,AMP,left,0.9004604922179169,0,,,,,,,,,,,,,,left,0,0.9004604922179169,,,,,,,,,,,1070,2019_Mar_14_1402,mf_amp_cond2,3.0.4,60.00384890728228,
respect,&&&&&&&&&&&&&,left,sanctity.virtue,photocalkodes,,,,,,,,,,,,,,,0,69,69,178,,,,,,,,,,,,,AMP,right,0.16697926341771563,0,,,,,,,,,,,,,,right,0,0.16697926341771563,,,,,,,,,,,1070,2019_Mar_14_1402,mf_amp_cond2,3.0.4,60.00384890728228,
interests,&&&,left,fairness.virtue,mih,,,,,,,,,,,,,,,0,70,70,215,,,,,,,,,,,,,AMP,right,0.5003672263474073,0,,,,,,,,,,,,,,right,0,0.5003672263474073,,,,,,,,,,,1070,2019_Mar_14_1402,mf_amp_cond2,3.0.4,60.00384890728228,
honored,&&&&&&&&&&&&,left,authority.virtue,bruthfulness,,,,,,,,,,,,,,,0,71,71,119,,,,,,,,,,,,,AMP,right,0.4170017139367701,0,,,,,,,,,,,,,,right,0,0.4170017139367701,,,,,,,,,,,1070,2019_Mar_14_1402,mf_amp_cond2,3.0.4,60.00384890728228,
violations,&&&&&&&&&&&,right,sanctity.vice,ronviolence,,,,,,,,,,,,,,,0,72,72,131,,,,,,,,,,,,,AMP,left,0.3503374633735348,0,,,,,,,,,,,,,,left,0,0.3503374633735348,,,,,,,,,,,1070,2019_Mar_14_1402,mf_amp_cond2,3.0.4,60.00384890728228,
fraud,&&&&&&&&&,right,fairness.vice,taxpayung,,,,,,,,,,,,,,,0,73,73,42,,,,,,,,,,,,,AMP,left,0.4336955991850573,0,,,,,,,,,,,,,,left,0,0.4336955991850573,,,,,,,,,,,1070,2019_Mar_14_1402,mf_amp_cond2,3.0.4,60.00384890728228,
powerful,&&&&&&&&&,left,authority.virtue,seachwear,,,,,,,,,,,,,,,0,74,74,71,,,,,,,,,,,,,AMP,right,0.43368084598705536,0,,,,,,,,,,,,,,right,0,0.43368084598705536,,,,,,,,,,,1070,2019_Mar_14_1402,mf_amp_cond2,3.0.4,60.00384890728228,
love,&&&&&&&&,left,loyalty.virtue,hescribe,,,,,,,,,,,,,,,0,75,75,258,,,,,,,,,,,,,AMP,right,0.300314178977942,0,,,,,,,,,,,,,,right,0,0.300314178977942,,,,,,,,,,,1070,2019_Mar_14_1402,mf_amp_cond2,3.0.4,60.00384890728228,
arrests,&&&&,right,authority.vice,alar,,,,,,,,,,,,,,,0,76,76,257,,,,,,,,,,,,,AMP,left,0.4336840532039332,0,,,,,,,,,,,,,,left,0,0.4336840532039332,,,,,,,,,,,1070,2019_Mar_14_1402,mf_amp_cond2,3.0.4,60.00384890728228,
betrayal,&&&&&&&&&&&,right,loyalty.vice,presentkess,,,,,,,,,,,,,,,0,77,77,153,,,,,,,,,,,,,AMP,left,0.4836922636795862,0,,,,,,,,,,,,,,left,0,0.4836922636795862,,,,,,,,,,,1070,2019_Mar_14_1402,mf_amp_cond2,3.0.4,60.00384890728228,
help,&&&&&&&&&,left,care.virtue,pescinded,,,,,,,,,,,,,,,0,78,78,225,,,,,,,,,,,,,AMP,right,0.5670491166040392,0,,,,,,,,,,,,,,right,0,0.5670491166040392,,,,,,,,,,,1070,2019_Mar_14_1402,mf_amp_cond2,3.0.4,60.00384890728228,
safety,&&&&&&&&&&&&&,left,care.virtue,wonderfujnoss,,,,,,,,,,,,,,,0,79,79,156,,,,,,,,,,,,,AMP,right,0.950475117127553,0,,,,,,,,,,,,,,right,0,0.950475117127553,,,,,,,,,,,1070,2019_Mar_14_1402,mf_amp_cond2,3.0.4,60.00384890728228,
growth,&&&&&&&&&&,left,care.virtue,ecgagement,,,,,,,,,,,,,,,0,80,80,288,,,,,,,,,,,,,AMP,right,0.4337116352701287,0,,,,,,,,,,,,,,right,0,0.4337116352701287,,,,,,,,,,,1070,2019_Mar_14_1402,mf_amp_cond2,3.0.4,60.00384890728228,
help,&&&&&&&&&&&&&,left,care.virtue,photocalkodes,,,,,,,,,,,,,,,0,81,81,303,,,,,,,,,,,,,AMP,right,1.0671581619824337,0,,,,,,,,,,,,,,right,0,1.0671581619824337,,,,,,,,,,,1070,2019_Mar_14_1402,mf_amp_cond2,3.0.4,60.00384890728228,
great,&&&&&&&&&&,left,loyalty.virtue,imebreaker,,,,,,,,,,,,,,,0,82,82,83,,,,,,,,,,,,,AMP,right,0.30031225464790623,0,,,,,,,,,,,,,,right,0,0.30031225464790623,,,,,,,,,,,1070,2019_Mar_14_1402,mf_amp_cond2,3.0.4,60.00384890728228,
win,&&&&&&&&&&,left,fairness.virtue,ecgagement,,,,,,,,,,,,,,,0,83,83,223,,,,,,,,,,,,,AMP,right,0.3503300867744201,0,,,,,,,,,,,,,,right,0,0.3503300867744201,,,,,,,,,,,1070,2019_Mar_14_1402,mf_amp_cond2,3.0.4,60.00384890728228,
gondensed,&&&&&&,None,nonword,strofe,,,,,,,,,,,,,,,0,84,84,162,,,,,,,,,,,,,AMP,left,0.883821771102248,0,,,,,,,,,,,,,,left,0,0.883821771102248,,,,,,,,,,,1070,2019_Mar_14_1402,mf_amp_cond2,3.0.4,60.00384890728228,
fighters,&&&&&&&&&&,right,authority.vice,imebreaker,,,,,,,,,,,,,,,0,85,85,56,,,,,,,,,,,,,AMP,right,0.5837141368992889,1,,,,,,,,,,,,,,right,1,0.5837141368992889,,,,,,,,,,,1070,2019_Mar_14_1402,mf_amp_cond2,3.0.4,60.00384890728228,
agreement,&&&&&&&&&&,left,fairness.virtue,supervuned,,,,,,,,,,,,,,,0,86,86,41,,,,,,,,,,,,,AMP,left,1.2671717605824142,1,,,,,,,,,,,,,,left,1,1.2671717605824142,,,,,,,,,,,1070,2019_Mar_14_1402,mf_amp_cond2,3.0.4,60.00384890728228,
powerful,&&&&&&&&&,left,authority.virtue,pescinded,,,,,,,,,,,,,,,0,87,87,128,,,,,,,,,,,,,AMP,right,0.8838009241917462,0,,,,,,,,,,,,,,right,0,0.8838009241917462,,,,,,,,,,,1070,2019_Mar_14_1402,mf_amp_cond2,3.0.4,60.00384890728228,
lies,&&&&,right,fairness.vice,coom,,,,,,,,,,,,,,,0,88,88,146,,,,,,,,,,,,,AMP,left,0.933794702190653,0,,,,,,,,,,,,,,left,0,0.933794702190653,,,,,,,,,,,1070,2019_Mar_14_1402,mf_amp_cond2,3.0.4,60.00384890728228,
tracious,&&&&&,None,nonword,atson,,,,,,,,,,,,,,,0,89,89,280,,,,,,,,,,,,,AMP,right,0.1336068875627916,0,,,,,,,,,,,,,,right,0,0.1336068875627916,,,,,,,,,,,1070,2019_Mar_14_1402,mf_amp_cond2,3.0.4,60.00384890728228,
civilians,&&&&&&&&&,right,care.vice,tomedians,,,,,,,,,,,,,,,0,90,90,181,,,,,,,,,,,,,AMP,left,1.584004710760155,0,,,,,,,,,,,,,,left,0,1.584004710760155,,,,,,,,,,,1070,2019_Mar_14_1402,mf_amp_cond2,3.0.4,60.00384890728228,
betrayal,&&&&&&&&&&,right,loyalty.vice,fonderland,,,,,,,,,,,,,,,0,91,91,327,,,,,,,,,,,,,AMP,left,0.31685604214021623,0,,,,,,,,,,,,,,left,0,0.31685604214021623,,,,,,,,,,,1070,2019_Mar_14_1402,mf_amp_cond2,3.0.4,60.00384890728228,
agreement,&&&&&&&,left,fairness.virtue,chadows,,,,,,,,,,,,,,,0,92,92,137,,,,,,,,,,,,,AMP,right,0.41700235538019115,0,,,,,,,,,,,,,,right,0,0.41700235538019115,,,,,,,,,,,1070,2019_Mar_14_1402,mf_amp_cond2,3.0.4,60.00384890728228,
refused,&&&&&&&&,right,authority.vice,lachelor,,,,,,,,,,,,,,,0,93,93,246,,,,,,,,,,,,,AMP,left,0.4670211496718366,0,,,,,,,,,,,,,,left,0,0.4670211496718366,,,,,,,,,,,1070,2019_Mar_14_1402,mf_amp_cond2,3.0.4,60.00384890728228,
great,&&&&&&&&&&,left,loyalty.virtue,simplustic,,,,,,,,,,,,,,,0,94,94,314,,,,,,,,,,,,,AMP,right,0.21681717067008321,0,,,,,,,,,,,,,,right,0,0.21681717067008321,,,,,,,,,,,1070,2019_Mar_14_1402,mf_amp_cond2,3.0.4,60.00384890728228,
embrace,&&&&&&&&&,left,authority.virtue,crilfully,,,,,,,,,,,,,,,0,95,95,147,,,,,,,,,,,,,AMP,left,0.5503221970204777,1,,,,,,,,,,,,,,left,1,0.5503221970204777,,,,,,,,,,,1070,2019_Mar_14_1402,mf_amp_cond2,3.0.4,60.00384890728228,
fraud,&&&&&&&&,right,fairness.vice,hescribe,,,,,,,,,,,,,,,0,96,96,185,,,,,,,,,,,,,AMP,left,0.33366474575768734,0,,,,,,,,,,,,,,left,0,0.33366474575768734,,,,,,,,,,,1070,2019_Mar_14_1402,mf_amp_cond2,3.0.4,60.00384890728228,
rejected,&&&&&,right,authority.vice,viscs,,,,,,,,,,,,,,,0,97,97,248,,,,,,,,,,,,,AMP,left,0.3169817650468758,0,,,,,,,,,,,,,,left,0,0.3169817650468758,,,,,,,,,,,1070,2019_Mar_14_1402,mf_amp_cond2,3.0.4,60.00384890728228,
love,&&&&&&&&&,left,loyalty.virtue,tomedians,,,,,,,,,,,,,,,0,98,98,102,,,,,,,,,,,,,AMP,right,0.3336663493660126,0,,,,,,,,,,,,,,right,0,0.3336663493660126,,,,,,,,,,,1070,2019_Mar_14_1402,mf_amp_cond2,3.0.4,60.00384890728228,
improve,&&&&&&&&&&&,left,care.virtue,blunderints,,,,,,,,,,,,,,,0,99,99,165,,,,,,,,,,,,,AMP,right,0.40035914416057494,0,,,,,,,,,,,,,,right,0,0.40035914416057494,,,,,,,,,,,1070,2019_Mar_14_1402,mf_amp_cond2,3.0.4,60.00384890728228,
blamed,&&&&&&&&&&,right,loyalty.vice,focomotive,,,,,,,,,,,,,,,0,100,100,52,,,,,,,,,,,,,AMP,left,0.3836700697377182,0,,,,,,,,,,,,,,left,0,0.3836700697377182,,,,,,,,,,,1070,2019_Mar_14_1402,mf_amp_cond2,3.0.4,60.00384890728228,
peace,&&&&&,left,care.virtue,infet,,,,,,,,,,,,,,,0,101,101,136,,,,,,,,,,,,,AMP,right,1.46727516125884,0,,,,,,,,,,,,,,right,0,1.46727516125884,,,,,,,,,,,1070,2019_Mar_14_1402,mf_amp_cond2,3.0.4,60.00384890728228,
troops,&&&&&,right,loyalty.vice,ablow,,,,,,,,,,,,,,,0,102,102,176,,,,,,,,,,,,,AMP,left,1.1005366315498577,0,,,,,,,,,,,,,,left,0,1.1005366315498577,,,,,,,,,,,1070,2019_Mar_14_1402,mf_amp_cond2,3.0.4,60.00384890728228,
abuse,&&&&&&&,right,sanctity.vice,troubla,,,,,,,,,,,,,,,0,103,103,62,,,,,,,,,,,,,AMP,left,0.8337763569093113,0,,,,,,,,,,,,,,left,0,0.8337763569093113,,,,,,,,,,,1070,2019_Mar_14_1402,mf_amp_cond2,3.0.4,60.00384890728228,
rejected,&&&&&&&&&&,right,authority.vice,gationwide,,,,,,,,,,,,,,,0,104,104,227,,,,,,,,,,,,,AMP,left,1.2839060567650904,0,,,,,,,,,,,,,,left,0,1.2839060567650904,,,,,,,,,,,1070,2019_Mar_14_1402,mf_amp_cond2,3.0.4,60.00384890728228,
peaceful,&&&&&&,left,authority.virtue,forepo,,,,,,,,,,,,,,,0,105,105,211,,,,,,,,,,,,,AMP,right,0.40033797652836256,0,,,,,,,,,,,,,,right,0,0.40033797652836256,,,,,,,,,,,1070,2019_Mar_14_1402,mf_amp_cond2,3.0.4,60.00384890728228,
unpleasant,&&&&&&&&&&,None,control,Oregoniuns,,,,,,,,,,,,,,,0,106,106,272,,,,,,,,,,,,,AMP,left,2.184126328429329,0,,,,,,,,,,,,,,left,0,2.184126328429329,,,,,,,,,,,1070,2019_Mar_14_1402,mf_amp_cond2,3.0.4,60.00384890728228,
critics,&&&&&&&&&&,right,loyalty.vice,elduringly,,,,,,,,,,,,,,,0,107,107,19,,,,,,,,,,,,,AMP,left,0.33365768988005584,0,,,,,,,,,,,,,,left,0,0.33365768988005584,,,,,,,,,,,1070,2019_Mar_14_1402,mf_amp_cond2,3.0.4,60.00384890728228,
riot,&&&&&,right,authority.vice,saned,,,,,,,,,,,,,,,0,108,108,35,,,,,,,,,,,,,AMP,right,1.08384691568358,1,,,,,,,,,,,,,,right,1,1.08384691568358,,,,,,,,,,,1070,2019_Mar_14_1402,mf_amp_cond2,3.0.4,60.00384890728228,
abuse,&&&&&&&&&&,right,sanctity.vice,focomotive,,,,,,,,,,,,,,,0,109,109,324,,,,,,,,,,,,,AMP,left,0.18361413587308562,0,,,,,,,,,,,,,,left,0,0.18361413587308562,,,,,,,,,,,1070,2019_Mar_14_1402,mf_amp_cond2,3.0.4,60.00384890728228,
pleasant,&&&&&&&&&&&&&,None,control,wonderfujnoss,,,,,,,,,,,,,,,0,110,110,46,,,,,,,,,,,,,AMP,right,0.9503057760696265,0,,,,,,,,,,,,,,right,0,0.9503057760696265,,,,,,,,,,,1070,2019_Mar_14_1402,mf_amp_cond2,3.0.4,60.00384890728228,
tracious,&&&&,None,nonword,coom,,,,,,,,,,,,,,,0,111,111,219,,,,,,,,,,,,,AMP,left,2.4675439260440726,0,,,,,,,,,,,,,,left,0,2.4675439260440726,,,,,,,,,,,1070,2019_Mar_14_1402,mf_amp_cond2,3.0.4,60.00384890728228,
suicide,&&&&&&&&&&,right,care.vice,fonderland,,,,,,,,,,,,,,,0,112,112,122,,,,,,,,,,,,,AMP,left,0.3169875380376652,0,,,,,,,,,,,,,,left,0,0.3169875380376652,,,,,,,,,,,1070,2019_Mar_14_1402,mf_amp_cond2,3.0.4,60.00384890728228,
emassion,&&&&&&&,None,nonword,hatigue,,,,,,,,,,,,,,,0,113,113,129,,,,,,,,,,,,,AMP,left,0.46702435688894184,0,,,,,,,,,,,,,,left,0,0.46702435688894184,,,,,,,,,,,1070,2019_Mar_14_1402,mf_amp_cond2,3.0.4,60.00384890728228,
hand,&&&&&&&&&,left,sanctity.virtue,reprisols,,,,,,,,,,,,,,,0,114,114,34,,,,,,,,,,,,,AMP,right,2.1507818553620837,0,,,,,,,,,,,,,,right,0,2.1507818553620837,,,,,,,,,,,1070,2019_Mar_14_1402,mf_amp_cond2,3.0.4,60.00384890728228,
crime,&&&,right,fairness.vice,mih,,,,,,,,,,,,,,,0,115,115,124,,,,,,,,,,,,,AMP,left,0.3169856137074021,0,,,,,,,,,,,,,,left,0,0.3169856137074021,,,,,,,,,,,1070,2019_Mar_14_1402,mf_amp_cond2,3.0.4,60.00384890728228,
fear,&&&&&&,right,sanctity.vice,sgrawl,,,,,,,,,,,,,,,0,116,116,26,,,,,,,,,,,,,AMP,left,0.3335467201713982,0,,,,,,,,,,,,,,left,0,0.3335467201713982,,,,,,,,,,,1070,2019_Mar_14_1402,mf_amp_cond2,3.0.4,60.00384890728228,
erdest,&&&&&&,None,nonword,strofe,,,,,,,,,,,,,,,0,117,117,234,,,,,,,,,,,,,AMP,left,0.800445674875391,0,,,,,,,,,,,,,,left,0,0.800445674875391,,,,,,,,,,,1070,2019_Mar_14_1402,mf_amp_cond2,3.0.4,60.00384890728228,
gun,&&&&&,right,authority.vice,saned,,,,,,,,,,,,,,,0,118,118,189,,,,,,,,,,,,,AMP,left,0.26697772395345964,0,,,,,,,,,,,,,,left,0,0.26697772395345964,,,,,,,,,,,1070,2019_Mar_14_1402,mf_amp_cond2,3.0.4,60.00384890728228,
love,&&&&&&&&&,left,loyalty.virtue,disregord,,,,,,,,,,,,,,,0,119,119,201,,,,,,,,,,,,,AMP,right,0.5337030399284686,0,,,,,,,,,,,,,,right,0,0.5337030399284686,,,,,,,,,,,1070,2019_Mar_14_1402,mf_amp_cond2,3.0.4,60.00384890728228,
fair,&&&&&&&&&&,left,fairness.virtue,fonderland,,,,,,,,,,,,,,,0,120,120,74,,,,,,,,,,,,,AMP,right,0.5003864696493565,0,,,,,,,,,,,,,,right,0,0.5003864696493565,,,,,,,,,,,1070,2019_Mar_14_1402,mf_amp_cond2,3.0.4,60.00384890728228,
black,&&&&&&&&&&,right,loyalty.vice,gationwide,,,,,,,,,,,,,,,0,121,121,283,,,,,,,,,,,,,AMP,right,0.6170935686318444,1,,,,,,,,,,,,,,right,1,0.6170935686318444,,,,,,,,,,,1070,2019_Mar_14_1402,mf_amp_cond2,3.0.4,60.00384890728228,
great,&&&&&&&&&,left,loyalty.virtue,chressing,,,,,,,,,,,,,,,0,122,122,190,,,,,,,,,,,,,AMP,left,0.8337859785603996,1,,,,,,,,,,,,,,left,1,0.8337859785603996,,,,,,,,,,,1070,2019_Mar_14_1402,mf_amp_cond2,3.0.4,60.00384890728228,
army,&&&&&&&&&,right,loyalty.vice,chressing,,,,,,,,,,,,,,,0,123,123,161,,,,,,,,,,,,,AMP,left,1.6506663955499334,0,,,,,,,,,,,,,,left,0,1.6506663955499334,,,,,,,,,,,1070,2019_Mar_14_1402,mf_amp_cond2,3.0.4,60.00384890728228,
embrace,&&&&&&&&&&&&,left,authority.virtue,bruthfulness,,,,,,,,,,,,,,,0,124,124,81,,,,,,,,,,,,,AMP,right,3.2343917577088632,0,,,,,,,,,,,,,,right,0,3.2343917577088632,,,,,,,,,,,1070,2019_Mar_14_1402,mf_amp_cond2,3.0.4,60.00384890728228,
corruption,&&&&&,right,sanctity.vice,viscs,,,,,,,,,,,,,,,0,125,125,192,,,,,,,,,,,,,AMP,left,0.46708465256847376,0,,,,,,,,,,,,,,left,0,0.46708465256847376,,,,,,,,,,,1070,2019_Mar_14_1402,mf_amp_cond2,3.0.4,60.00384890728228,
useful,&&&&&&,left,authority.virtue,sgrawl,,,,,,,,,,,,,,,0,126,126,294,,,,,,,,,,,,,AMP,left,1.3006076393342028,1,,,,,,,,,,,,,,left,1,1.3006076393342028,,,,,,,,,,,1070,2019_Mar_14_1402,mf_amp_cond2,3.0.4,60.00384890728228,
growth,&&&&&,left,care.virtue,noped,,,,,,,,,,,,,,,0,127,127,168,,,,,,,,,,,,,AMP,right,0.6337287618089249,0,,,,,,,,,,,,,,right,0,0.6337287618089249,,,,,,,,,,,1070,2019_Mar_14_1402,mf_amp_cond2,3.0.4,60.00384890728228,
faith,&&&&&&&,left,sanctity.virtue,scalbel,,,,,,,,,,,,,,,0,128,128,320,,,,,,,,,,,,,AMP,left,0.5503735124925697,1,,,,,,,,,,,,,,left,1,0.5503735124925697,,,,,,,,,,,1070,2019_Mar_14_1402,mf_amp_cond2,3.0.4,60.00384890728228,
opportunity,&&&&&,left,fairness.virtue,infet,,,,,,,,,,,,,,,0,129,129,23,,,,,,,,,,,,,AMP,left,2.034104904219703,1,,,,,,,,,,,,,,left,1,2.034104904219703,,,,,,,,,,,1070,2019_Mar_14_1402,mf_amp_cond2,3.0.4,60.00384890728228,
growth,&&&&&&&&&&,left,care.virtue,ammessment,,,,,,,,,,,,,,,0,130,130,53,,,,,,,,,,,,,AMP,right,0.6170618171834121,0,,,,,,,,,,,,,,right,0,0.6170618171834121,,,,,,,,,,,1070,2019_Mar_14_1402,mf_amp_cond2,3.0.4,60.00384890728228,
protesters,&&&&&&,right,authority.vice,forepo,,,,,,,,,,,,,,,0,131,131,45,,,,,,,,,,,,,AMP,left,0.41702512662095614,0,,,,,,,,,,,,,,left,0,0.41702512662095614,,,,,,,,,,,1070,2019_Mar_14_1402,mf_amp_cond2,3.0.4,60.00384890728228,
fair,&&&&&&&&,left,fairness.virtue,ebbitter,,,,,,,,,,,,,,,0,132,132,249,,,,,,,,,,,,,AMP,right,1.2005370164158649,0,,,,,,,,,,,,,,right,0,1.2005370164158649,,,,,,,,,,,1070,2019_Mar_14_1402,mf_amp_cond2,3.0.4,60.00384890728228,
energy,&&&&&&&&,left,sanctity.virtue,gowlands,,,,,,,,,,,,,,,0,133,133,209,,,,,,,,,,,,,AMP,right,0.6504011587035166,0,,,,,,,,,,,,,,right,0,0.6504011587035166,,,,,,,,,,,1070,2019_Mar_14_1402,mf_amp_cond2,3.0.4,60.00384890728228,
serial,&&&&&&&&&&&,right,sanctity.vice,lempestuous,,,,,,,,,,,,,,,0,134,134,202,,,,,,,,,,,,,AMP,left,1.3338805914622753,0,,,,,,,,,,,,,,left,0,1.3338805914622753,,,,,,,,,,,1070,2019_Mar_14_1402,mf_amp_cond2,3.0.4,60.00384890728228,
useful,&&&&&,left,authority.virtue,tabin,,,,,,,,,,,,,,,0,135,135,180,,,,,,,,,,,,,AMP,right,0.7670928630441267,0,,,,,,,,,,,,,,right,0,0.7670928630441267,,,,,,,,,,,1070,2019_Mar_14_1402,mf_amp_cond2,3.0.4,60.00384890728228,
victim,&&&&&&,right,care.vice,greaks,,,,,,,,,,,,,,,0,136,136,214,,,,,,,,,,,,,AMP,left,0.5670545688731181,0,,,,,,,,,,,,,,left,0,0.5670545688731181,,,,,,,,,,,1070,2019_Mar_14_1402,mf_amp_cond2,3.0.4,60.00384890728228,
drug,&&&&&&&&&,right,sanctity.vice,pescinded,,,,,,,,,,,,,,,0,137,137,1,,,,,,,,,,,,,AMP,left,0.6670652168336346,0,,,,,,,,,,,,,,left,0,0.6670652168336346,,,,,,,,,,,1070,2019_Mar_14_1402,mf_amp_cond2,3.0.4,60.00384890728228,
erdest,&&&&&&&&&,None,nonword,seachwear,,,,,,,,,,,,,,,0,138,138,285,,,,,,,,,,,,,AMP,left,1.2005469587884363,0,,,,,,,,,,,,,,left,0,1.2005469587884363,,,,,,,,,,,1070,2019_Mar_14_1402,mf_amp_cond2,3.0.4,60.00384890728228,
slavery,&&&&&&&&&&&&,right,loyalty.vice,unreflectuve,,,,,,,,,,,,,,,0,139,139,291,,,,,,,,,,,,,AMP,left,0.3336307492572814,0,,,,,,,,,,,,,,left,0,0.3336307492572814,,,,,,,,,,,1070,2019_Mar_14_1402,mf_amp_cond2,3.0.4,60.00384890728228,
suicide,&&&&&&&&&&&&&,right,care.vice,idexpressible,,,,,,,,,,,,,,,0,140,140,271,,,,,,,,,,,,,AMP,left,0.1836179845336119,0,,,,,,,,,,,,,,left,0,0.1836179845336119,,,,,,,,,,,1070,2019_Mar_14_1402,mf_amp_cond2,3.0.4,60.00384890728228,
attacks,&&&&&&,right,care.vice,Cunday,,,,,,,,,,,,,,,0,141,141,286,,,,,,,,,,,,,AMP,left,0.7670989567563993,0,,,,,,,,,,,,,,left,0,0.7670989567563993,,,,,,,,,,,1070,2019_Mar_14_1402,mf_amp_cond2,3.0.4,60.00384890728228,
Daptist,&&&&&,None,nonword,framo,,,,,,,,,,,,,,,0,142,142,55,,,,,,,,,,,,,AMP,left,0.8171036392934639,0,,,,,,,,,,,,,,left,0,0.8171036392934639,,,,,,,,,,,1070,2019_Mar_14_1402,mf_amp_cond2,3.0.4,60.00384890728228,
intelligence,&&&&&&&&&,left,loyalty.virtue,seachwear,,,,,,,,,,,,,,,0,143,143,166,,,,,,,,,,,,,AMP,right,0.45037569340024675,0,,,,,,,,,,,,,,right,0,0.45037569340024675,,,,,,,,,,,1070,2019_Mar_14_1402,mf_amp_cond2,3.0.4,60.00384890728228,
agreement,&&&&&&&&&&&,left,fairness.virtue,hefurbished,,,,,,,,,,,,,,,0,144,144,305,,,,,,,,,,,,,AMP,right,0.5003636984085915,0,,,,,,,,,,,,,,right,0,0.5003636984085915,,,,,,,,,,,1070,2019_Mar_14_1402,mf_amp_cond2,3.0.4,60.00384890728228,
free,&&&&&&&&&&,left,fairness.virtue,focomotive,,,,,,,,,,,,,,,0,145,145,135,,,,,,,,,,,,,AMP,right,0.4003434287972141,0,,,,,,,,,,,,,,right,0,0.4003434287972141,,,,,,,,,,,1070,2019_Mar_14_1402,mf_amp_cond2,3.0.4,60.00384890728228,
war,&&&&&&&&,right,sanctity.vice,sliptery,,,,,,,,,,,,,,,0,146,146,151,,,,,,,,,,,,,AMP,left,0.633730686139188,0,,,,,,,,,,,,,,left,0,0.633730686139188,,,,,,,,,,,1070,2019_Mar_14_1402,mf_amp_cond2,3.0.4,60.00384890728228,
death,&&&&&&&&&&&&,right,care.vice,rorroborated,,,,,,,,,,,,,,,0,147,147,169,,,,,,,,,,,,,AMP,left,0.4003331657027047,0,,,,,,,,,,,,,,left,0,0.4003331657027047,,,,,,,,,,,1070,2019_Mar_14_1402,mf_amp_cond2,3.0.4,60.00384890728228,
critics,&&&&&&&,right,loyalty.vice,troubla,,,,,,,,,,,,,,,0,148,148,230,,,,,,,,,,,,,AMP,left,1.6506493972997305,0,,,,,,,,,,,,,,left,0,1.6506493972997305,,,,,,,,,,,1070,2019_Mar_14_1402,mf_amp_cond2,3.0.4,60.00384890728228,
fontacts,&&&&&&&&&&&,None,nonword,fornicalion,,,,,,,,,,,,,,,0,149,149,84,,,,,,,,,,,,,AMP,left,0.9838362677230634,0,,,,,,,,,,,,,,left,0,0.9838362677230634,,,,,,,,,,,1070,2019_Mar_14_1402,mf_amp_cond2,3.0.4,60.00384890728228,
slavery,&&&&&&&,right,loyalty.vice,smapper,,,,,,,,,,,,,,,0,150,150,203,,,,,,,,,,,,,AMP,left,0.2503046856156743,0,,,,,,,,,,,,,,left,0,0.2503046856156743,,,,,,,,,,,1070,2019_Mar_14_1402,mf_amp_cond2,3.0.4,60.00384890728228,
refused,&&&&&&&&&&,right,authority.vice,honstables,,,,,,,,,,,,,,,0,151,151,12,,,,,,,,,,,,,AMP,left,0.5670443057786088,0,,,,,,,,,,,,,,left,0,0.5670443057786088,,,,,,,,,,,1070,2019_Mar_14_1402,mf_amp_cond2,3.0.4,60.00384890728228,
civilians,&&&&&&&&&&,right,care.vice,ammessment,,,,,,,,,,,,,,,0,152,152,326,,,,,,,,,,,,,AMP,right,0.48369162223616513,1,,,,,,,,,,,,,,right,1,0.48369162223616513,,,,,,,,,,,1070,2019_Mar_14_1402,mf_amp_cond2,3.0.4,60.00384890728228,
safe,&&&&&&&&&&&&,left,care.virtue,unreflectuve,,,,,,,,,,,,,,,0,153,153,4,,,,,,,,,,,,,AMP,left,0.7337422962648361,1,,,,,,,,,,,,,,left,1,0.7337422962648361,,,,,,,,,,,1070,2019_Mar_14_1402,mf_amp_cond2,3.0.4,60.00384890728228,
actively,&&&&&&,left,authority.virtue,Cunday,,,,,,,,,,,,,,,0,154,154,195,,,,,,,,,,,,,AMP,left,3.0676790140244066,1,,,,,,,,,,,,,,left,1,3.0676790140244066,,,,,,,,,,,1070,2019_Mar_14_1402,mf_amp_cond2,3.0.4,60.00384890728228,
honored,&&&&&&&&&&&,left,authority.virtue,ronviolence,,,,,,,,,,,,,,,0,155,155,13,,,,,,,,,,,,,AMP,right,0.6003903824541794,0,,,,,,,,,,,,,,right,0,0.6003903824541794,,,,,,,,,,,1070,2019_Mar_14_1402,mf_amp_cond2,3.0.4,60.00384890728228,
leact,&&&&&&,None,nonword,chared,,,,,,,,,,,,,,,0,156,156,217,,,,,,,,,,,,,AMP,left,1.4172650264531512,0,,,,,,,,,,,,,,left,0,1.4172650264531512,,,,,,,,,,,1070,2019_Mar_14_1402,mf_amp_cond2,3.0.4,60.00384890728228,
charges,&&&&&,right,fairness.vice,atson,,,,,,,,,,,,,,,0,157,157,40,,,,,,,,,,,,,AMP,left,1.8173582923238882,0,,,,,,,,,,,,,,left,0,1.8173582923238882,,,,,,,,,,,1070,2019_Mar_14_1402,mf_amp_cond2,3.0.4,60.00384890728228,
compassion,&&&&&&&&&&,left,care.virtue,ecgagement,,,,,,,,,,,,,,,0,158,158,72,,,,,,,,,,,,,AMP,right,1.4172643850097302,0,,,,,,,,,,,,,,right,0,1.4172643850097302,,,,,,,,,,,1070,2019_Mar_14_1402,mf_amp_cond2,3.0.4,60.00384890728228,
crime,&&&&&&&&&&&,right,fairness.vice,fornicalion,,,,,,,,,,,,,,,0,159,159,198,,,,,,,,,,,,,AMP,left,0.4336702621708355,0,,,,,,,,,,,,,,left,0,0.4336702621708355,,,,,,,,,,,1070,2019_Mar_14_1402,mf_amp_cond2,3.0.4,60.00384890728228,
suicide,&&&&&&&,right,care.vice,scalbel,,,,,,,,,,,,,,,0,160,160,240,,,,,,,,,,,,,AMP,left,1.8673725965115864,0,,,,,,,,,,,,,,left,0,1.8673725965115864,,,,,,,,,,,1070,2019_Mar_14_1402,mf_amp_cond2,3.0.4,60.00384890728228,
gun,&&&&&,right,authority.vice,scock,,,,,,,,,,,,,,,0,161,161,308,,,,,,,,,,,,,AMP,left,1.3672526465954888,0,,,,,,,,,,,,,,left,0,1.3672526465954888,,,,,,,,,,,1070,2019_Mar_14_1402,mf_amp_cond2,3.0.4,60.00384890728228,
unpleasant,&&&&&&&,None,control,reviked,,,,,,,,,,,,,,,0,162,162,14,,,,,,,,,,,,,AMP,left,0.41701967435187726,0,,,,,,,,,,,,,,left,0,0.41701967435187726,,,,,,,,,,,1070,2019_Mar_14_1402,mf_amp_cond2,3.0.4,60.00384890728228,
crime,&&&&&&&,right,fairness.vice,scalbel,,,,,,,,,,,,,,,0,163,163,0,,,,,,,,,,,,,AMP,left,0.5503776818748065,0,,,,,,,,,,,,,,left,0,0.5503776818748065,,,,,,,,,,,1070,2019_Mar_14_1402,mf_amp_cond2,3.0.4,60.00384890728228,
energy,&&&&&&&&&,left,sanctity.virtue,pescinded,,,,,,,,,,,,,,,0,164,164,247,,,,,,,,,,,,,AMP,left,1.3006217510892384,1,,,,,,,,,,,,,,left,1,1.3006217510892384,,,,,,,,,,,1070,2019_Mar_14_1402,mf_amp_cond2,3.0.4,60.00384890728228,
war,&&&&&&&&&&,right,sanctity.vice,frojecting,,,,,,,,,,,,,,,0,165,165,8,,,,,,,,,,,,,AMP,left,0.38367327695482345,0,,,,,,,,,,,,,,left,0,0.38367327695482345,,,,,,,,,,,1070,2019_Mar_14_1402,mf_amp_cond2,3.0.4,60.00384890728228,
slavery,&&&&&&&&&,right,loyalty.vice,brotesque,,,,,,,,,,,,,,,0,166,166,77,,,,,,,,,,,,,AMP,left,0.2669809311705649,0,,,,,,,,,,,,,,left,0,0.2669809311705649,,,,,,,,,,,1070,2019_Mar_14_1402,mf_amp_cond2,3.0.4,60.00384890728228,
sharing,&&&&&&&&,left,loyalty.virtue,clamorek,,,,,,,,,,,,,,,0,167,167,148,,,,,,,,,,,,,AMP,right,0.4503513185511565,0,,,,,,,,,,,,,,right,0,0.4503513185511565,,,,,,,,,,,1070,2019_Mar_14_1402,mf_amp_cond2,3.0.4,60.00384890728228,
opportunity,&&&&&&&&,left,fairness.virtue,sliptery,,,,,,,,,,,,,,,0,168,168,200,,,,,,,,,,,,,AMP,left,0.38366365530373514,1,,,,,,,,,,,,,,left,1,0.38366365530373514,,,,,,,,,,,1070,2019_Mar_14_1402,mf_amp_cond2,3.0.4,60.00384890728228,
safe,&&&&&&&&&&&,left,care.virtue,blunderints,,,,,,,,,,,,,,,0,169,169,307,,,,,,,,,,,,,AMP,right,0.7337541629676707,0,,,,,,,,,,,,,,right,0,0.7337541629676707,,,,,,,,,,,1070,2019_Mar_14_1402,mf_amp_cond2,3.0.4,60.00384890728228,
victim,&&&&&&&&&&&&&,right,care.vice,idexpressible,,,,,,,,,,,,,,,0,170,170,73,,,,,,,,,,,,,AMP,left,0.41700107249334906,0,,,,,,,,,,,,,,left,0,0.41700107249334906,,,,,,,,,,,1070,2019_Mar_14_1402,mf_amp_cond2,3.0.4,60.00384890728228,
great,&&&&&&&&&&&,left,loyalty.virtue,sowntrodden,,,,,,,,,,,,,,,0,171,171,5,,,,,,,,,,,,,AMP,right,0.6337326104692238,0,,,,,,,,,,,,,,right,0,0.6337326104692238,,,,,,,,,,,1070,2019_Mar_14_1402,mf_amp_cond2,3.0.4,60.00384890728228,
corruption,&&&&&&&&&&&&,right,sanctity.vice,gusinesslike,,,,,,,,,,,,,,,0,172,172,142,,,,,,,,,,,,,AMP,left,0.5003685092342494,0,,,,,,,,,,,,,,left,0,0.5003685092342494,,,,,,,,,,,1070,2019_Mar_14_1402,mf_amp_cond2,3.0.4,60.00384890728228,
violations,&&&&&&&,right,sanctity.vice,hatigue,,,,,,,,,,,,,,,0,173,173,306,,,,,,,,,,,,,AMP,left,1.1672072965468487,0,,,,,,,,,,,,,,left,0,1.1672072965468487,,,,,,,,,,,1070,2019_Mar_14_1402,mf_amp_cond2,3.0.4,60.00384890728228,
proached,&&&&&&&&&,None,nonword,disregord,,,,,,,,,,,,,,,0,174,174,310,,,,,,,,,,,,,AMP,left,0.8171180717697553,0,,,,,,,,,,,,,,left,0,0.8171180717697553,,,,,,,,,,,1070,2019_Mar_14_1402,mf_amp_cond2,3.0.4,60.00384890728228,
attacks,&&&&,right,care.vice,alar,,,,,,,,,,,,,,,0,175,175,15,,,,,,,,,,,,,AMP,left,0.31697567133460325,0,,,,,,,,,,,,,,left,0,0.31697567133460325,,,,,,,,,,,1070,2019_Mar_14_1402,mf_amp_cond2,3.0.4,60.00384890728228,
faith,&&&&&&,left,sanctity.virtue,sonvoy,,,,,,,,,,,,,,,0,176,176,30,,,,,,,,,,,,,AMP,right,0.40034471168405616,0,,,,,,,,,,,,,,right,0,0.40034471168405616,,,,,,,,,,,1070,2019_Mar_14_1402,mf_amp_cond2,3.0.4,60.00384890728228,
improve,&&&&&,left,care.virtue,lenon,,,,,,,,,,,,,,,0,177,177,107,,,,,,,,,,,,,AMP,right,0.8504474709170609,0,,,,,,,,,,,,,,right,0,0.8504474709170609,,,,,,,,,,,1070,2019_Mar_14_1402,mf_amp_cond2,3.0.4,60.00384890728228,
fegard,&&&&&&&&,None,nonword,ebbitter,,,,,,,,,,,,,,,0,178,178,59,,,,,,,,,,,,,AMP,left,2.717579526153031,0,,,,,,,,,,,,,,left,0,2.717579526153031,,,,,,,,,,,1070,2019_Mar_14_1402,mf_amp_cond2,3.0.4,60.00384890728228,
clean,&&&&&&&&,left,sanctity.virtue,lachelor,,,,,,,,,,,,,,,0,179,179,236,,,,,,,,,,,,,AMP,right,0.2836459514658145,0,,,,,,,,,,,,,,right,0,0.2836459514658145,,,,,,,,,,,1070,2019_Mar_14_1402,mf_amp_cond2,3.0.4,60.00384890728228,
rejected,&&&&&,right,authority.vice,atson,,,,,,,,,,,,,,,0,180,180,116,,,,,,,,,,,,,AMP,left,1.6006427904328575,0,,,,,,,,,,,,,,left,0,1.6006427904328575,,,,,,,,,,,1070,2019_Mar_14_1402,mf_amp_cond2,3.0.4,60.00384890728228,
death,&&&&&&&,right,care.vice,allears,,,,,,,,,,,,,,,0,181,181,18,,,,,,,,,,,,,AMP,left,1.2505676774105723,0,,,,,,,,,,,,,,left,0,1.2505676774105723,,,,,,,,,,,1070,2019_Mar_14_1402,mf_amp_cond2,3.0.4,60.00384890728228,
hate,&&&&&&&,right,fairness.vice,allears,,,,,,,,,,,,,,,0,182,182,266,,,,,,,,,,,,,AMP,left,0.583733700923176,0,,,,,,,,,,,,,,left,0,0.583733700923176,,,,,,,,,,,1070,2019_Mar_14_1402,mf_amp_cond2,3.0.4,60.00384890728228,
death,&&&&&&,right,care.vice,greaks,,,,,,,,,,,,,,,0,183,183,158,,,,,,,,,,,,,AMP,left,0.6670751592062061,0,,,,,,,,,,,,,,left,0,0.6670751592062061,,,,,,,,,,,1070,2019_Mar_14_1402,mf_amp_cond2,3.0.4,60.00384890728228,
victim,&&&&&,right,care.vice,tabin,,,,,,,,,,,,,,,0,184,184,323,,,,,,,,,,,,,AMP,left,0.40036170993403175,0,,,,,,,,,,,,,,left,0,0.40036170993403175,,,,,,,,,,,1070,2019_Mar_14_1402,mf_amp_cond2,3.0.4,60.00384890728228,
black,&&&&&,right,loyalty.vice,saned,,,,,,,,,,,,,,,0,185,185,94,,,,,,,,,,,,,AMP,left,0.40034439096234564,0,,,,,,,,,,,,,,left,0,0.40034439096234564,,,,,,,,,,,1070,2019_Mar_14_1402,mf_amp_cond2,3.0.4,60.00384890728228,
arrests,&&&&&&&&&&&&,right,authority.vice,gusinesslike,,,,,,,,,,,,,,,0,186,186,39,,,,,,,,,,,,,AMP,left,1.383919270499291,0,,,,,,,,,,,,,,left,0,1.383919270499291,,,,,,,,,,,1070,2019_Mar_14_1402,mf_amp_cond2,3.0.4,60.00384890728228,
fraud,&&&&&&&&&,right,fairness.vice,gillipede,,,,,,,,,,,,,,,0,187,187,316,,,,,,,,,,,,,AMP,left,1.0004907042020932,0,,,,,,,,,,,,,,left,0,1.0004907042020932,,,,,,,,,,,1070,2019_Mar_14_1402,mf_amp_cond2,3.0.4,60.00384890728228,
critics,&&&&&,right,loyalty.vice,lenon,,,,,,,,,,,,,,,0,188,188,322,,,,,,,,,,,,,AMP,left,1.2504092408903489,0,,,,,,,,,,,,,,left,0,1.2504092408903489,,,,,,,,,,,1070,2019_Mar_14_1402,mf_amp_cond2,3.0.4,60.00384890728228,
hope,&&&&&&&&&,left,loyalty.virtue,reprisols,,,,,,,,,,,,,,,0,189,189,143,,,,,,,,,,,,,AMP,right,0.517033529529499,0,,,,,,,,,,,,,,right,0,0.517033529529499,,,,,,,,,,,1070,2019_Mar_14_1402,mf_amp_cond2,3.0.4,60.00384890728228,
fair,&&&&&&&,left,fairness.virtue,vurtain,,,,,,,,,,,,,,,0,190,190,204,,,,,,,,,,,,,AMP,right,2.8843118338611475,0,,,,,,,,,,,,,,right,0,2.8843118338611475,,,,,,,,,,,1070,2019_Mar_14_1402,mf_amp_cond2,3.0.4,60.00384890728228,
loyalty,&&&&&&&,left,loyalty.virtue,vurtain,,,,,,,,,,,,,,,0,191,191,2,,,,,,,,,,,,,AMP,right,0.25031206221501634,0,,,,,,,,,,,,,,right,0,0.25031206221501634,,,,,,,,,,,1070,2019_Mar_14_1402,mf_amp_cond2,3.0.4,60.00384890728228,
actively,&&&&&&&&&,left,authority.virtue,tomedians,,,,,,,,,,,,,,,0,192,192,298,,,,,,,,,,,,,AMP,right,0.5503834548653685,0,,,,,,,,,,,,,,right,0,0.5503834548653685,,,,,,,,,,,1070,2019_Mar_14_1402,mf_amp_cond2,3.0.4,60.00384890728228,
protesters,&&&&&,right,authority.vice,infet,,,,,,,,,,,,,,,0,193,193,295,,,,,,,,,,,,,AMP,right,0.8337898272206985,1,,,,,,,,,,,,,,right,1,0.8337898272206985,,,,,,,,,,,1070,2019_Mar_14_1402,mf_amp_cond2,3.0.4,60.00384890728228,
shot,&&&&&&&&&&,right,care.vice,Oregoniuns,,,,,,,,,,,,,,,0,194,194,10,,,,,,,,,,,,,AMP,left,0.8504455465867977,0,,,,,,,,,,,,,,left,0,0.8504455465867977,,,,,,,,,,,1070,2019_Mar_14_1402,mf_amp_cond2,3.0.4,60.00384890728228,
illegal,&&&&&&&&&&&&&,right,fairness.vice,wonderfujnoss,,,,,,,,,,,,,,,0,195,195,309,,,,,,,,,,,,,AMP,left,0.3670133882067148,0,,,,,,,,,,,,,,left,0,0.3670133882067148,,,,,,,,,,,1070,2019_Mar_14_1402,mf_amp_cond2,3.0.4,60.00384890728228,
win,&&&&&,left,fairness.virtue,noped,,,,,,,,,,,,,,,0,196,196,47,,,,,,,,,,,,,AMP,right,0.5503856999175696,0,,,,,,,,,,,,,,right,0,0.5503856999175696,,,,,,,,,,,1070,2019_Mar_14_1402,mf_amp_cond2,3.0.4,60.00384890728228,
blamed,&&&&&&,right,loyalty.vice,Cunday,,,,,,,,,,,,,,,0,197,197,139,,,,,,,,,,,,,AMP,left,0.8671266029671187,0,,,,,,,,,,,,,,left,0,0.8671266029671187,,,,,,,,,,,1070,2019_Mar_14_1402,mf_amp_cond2,3.0.4,60.00384890728228,
charges,&&&&&&&&&&,right,fairness.vice,ejanulated,,,,,,,,,,,,,,,0,198,198,275,,,,,,,,,,,,,AMP,left,2.1674372540064724,0,,,,,,,,,,,,,,left,0,2.1674372540064724,,,,,,,,,,,1070,2019_Mar_14_1402,mf_amp_cond2,3.0.4,60.00384890728228,
violations,&&&&&&&&,right,sanctity.vice,ebbitter,,,,,,,,,,,,,,,0,199,199,206,,,,,,,,,,,,,AMP,left,0.6504027623118418,0,,,,,,,,,,,,,,left,0,0.6504027623118418,,,,,,,,,,,1070,2019_Mar_14_1402,mf_amp_cond2,3.0.4,60.00384890728228,
betrayal,&&&&&&&&&&&,right,loyalty.vice,ronviolence,,,,,,,,,,,,,,,0,200,200,174,,,,,,,,,,,,,AMP,left,0.2502912153042871,0,,,,,,,,,,,,,,left,0,0.2502912153042871,,,,,,,,,,,1070,2019_Mar_14_1402,mf_amp_cond2,3.0.4,60.00384890728228,
riot,&&&&&&&&&,right,authority.vice,crilfully,,,,,,,,,,,,,,,0,201,201,297,,,,,,,,,,,,,AMP,left,0.4003392594149773,0,,,,,,,,,,,,,,left,0,0.4003392594149773,,,,,,,,,,,1070,2019_Mar_14_1402,mf_amp_cond2,3.0.4,60.00384890728228,
critics,&&&&&,right,loyalty.vice,framo,,,,,,,,,,,,,,,0,202,202,95,,,,,,,,,,,,,AMP,left,0.35032399306214757,0,,,,,,,,,,,,,,left,0,0.35032399306214757,,,,,,,,,,,1070,2019_Mar_14_1402,mf_amp_cond2,3.0.4,60.00384890728228,
lies,&&&&&&&&&,right,fairness.vice,crilfully,,,,,,,,,,,,,,,0,203,203,22,,,,,,,,,,,,,AMP,left,0.3169827272120074,0,,,,,,,,,,,,,,left,0,0.3169827272120074,,,,,,,,,,,1070,2019_Mar_14_1402,mf_amp_cond2,3.0.4,60.00384890728228,
slavery,&&&&&,right,loyalty.vice,viscs,,,,,,,,,,,,,,,0,204,204,91,,,,,,,,,,,,,AMP,left,0.41701550496986783,0,,,,,,,,,,,,,,left,0,0.41701550496986783,,,,,,,,,,,1070,2019_Mar_14_1402,mf_amp_cond2,3.0.4,60.00384890728228,
civilians,&&&&&&&&&&&,right,care.vice,lempestuous,,,,,,,,,,,,,,,0,205,205,43,,,,,,,,,,,,,AMP,left,0.7170936327763684,0,,,,,,,,,,,,,,left,0,0.7170936327763684,,,,,,,,,,,1070,2019_Mar_14_1402,mf_amp_cond2,3.0.4,60.00384890728228,
clean,&&&&&&&,left,sanctity.virtue,Loorish,,,,,,,,,,,,,,,0,206,206,65,,,,,,,,,,,,,AMP,right,0.683771930949888,0,,,,,,,,,,,,,,right,0,0.683771930949888,,,,,,,,,,,1070,2019_Mar_14_1402,mf_amp_cond2,3.0.4,60.00384890728228,
compassion,&&&&&&,left,care.virtue,sonvoy,,,,,,,,,,,,,,,0,207,207,239,,,,,,,,,,,,,AMP,right,0.9671407788662236,0,,,,,,,,,,,,,,right,0,0.9671407788662236,,,,,,,,,,,1070,2019_Mar_14_1402,mf_amp_cond2,3.0.4,60.00384890728228,
injured,&&&&&&&&&,right,care.vice,gillipede,,,,,,,,,,,,,,,0,208,208,80,,,,,,,,,,,,,AMP,left,1.6506545288470988,0,,,,,,,,,,,,,,left,0,1.6506545288470988,,,,,,,,,,,1070,2019_Mar_14_1402,mf_amp_cond2,3.0.4,60.00384890728228,
hate,&&&&&&&&&&,right,fairness.vice,ejanulated,,,,,,,,,,,,,,,0,209,209,155,,,,,,,,,,,,,AMP,left,1.5839816187979068,0,,,,,,,,,,,,,,left,0,1.5839816187979068,,,,,,,,,,,1070,2019_Mar_14_1402,mf_amp_cond2,3.0.4,60.00384890728228,
illegal,&&&&&&&&&&&&&,right,fairness.vice,wonderfujnoss,,,,,,,,,,,,,,,0,210,210,212,,,,,,,,,,,,,AMP,left,0.18361702236848032,0,,,,,,,,,,,,,,left,0,0.18361702236848032,,,,,,,,,,,1070,2019_Mar_14_1402,mf_amp_cond2,3.0.4,60.00384890728228,
pleasant,&&&&&&,None,control,Boeinf,,,,,,,,,,,,,,,0,211,211,318,,,,,,,,,,,,,AMP,right,0.183612532264533,0,,,,,,,,,,,,,,right,0,0.183612532264533,,,,,,,,,,,1070,2019_Mar_14_1402,mf_amp_cond2,3.0.4,60.00384890728228,
Daptist,&&&&&&&&&&,None,nonword,ejanulated,,,,,,,,,,,,,,,0,212,212,213,,,,,,,,,,,,,AMP,left,1.3339088149716645,0,,,,,,,,,,,,,,left,0,1.3339088149716645,,,,,,,,,,,1070,2019_Mar_14_1402,mf_amp_cond2,3.0.4,60.00384890728228,
intelligence,&&&&&&&&&&,left,loyalty.virtue,lorthwhile,,,,,,,,,,,,,,,0,213,213,313,,,,,,,,,,,,,AMP,right,0.3336554448280822,0,,,,,,,,,,,,,,right,0,0.3336554448280822,,,,,,,,,,,1070,2019_Mar_14_1402,mf_amp_cond2,3.0.4,60.00384890728228,
injured,&&&&&&&&&&,right,care.vice,Oregoniuns,,,,,,,,,,,,,,,0,214,214,87,,,,,,,,,,,,,AMP,left,1.2172219214564848,0,,,,,,,,,,,,,,left,0,1.2172219214564848,,,,,,,,,,,1070,2019_Mar_14_1402,mf_amp_cond2,3.0.4,60.00384890728228,
values,&&&&&&&&&&,left,sanctity.virtue,elduringly,,,,,,,,,,,,,,,0,215,215,290,,,,,,,,,,,,,AMP,right,0.5837208720549825,0,,,,,,,,,,,,,,right,0,0.5837208720549825,,,,,,,,,,,1070,2019_Mar_14_1402,mf_amp_cond2,3.0.4,60.00384890728228,
war,&&&&&&&,right,sanctity.vice,vurtain,,,,,,,,,,,,,,,0,216,216,300,,,,,,,,,,,,,AMP,left,0.28364498930068294,0,,,,,,,,,,,,,,left,0,0.28364498930068294,,,,,,,,,,,1070,2019_Mar_14_1402,mf_amp_cond2,3.0.4,60.00384890728228,
troops,&&&&&,right,loyalty.vice,ablow,,,,,,,,,,,,,,,0,217,217,163,,,,,,,,,,,,,AMP,left,1.3005733221123137,0,,,,,,,,,,,,,,left,0,1.3005733221123137,,,,,,,,,,,1070,2019_Mar_14_1402,mf_amp_cond2,3.0.4,60.00384890728228,
sharing,&&&&&,left,loyalty.virtue,framo,,,,,,,,,,,,,,,0,218,218,260,,,,,,,,,,,,,AMP,left,0.9838231181333867,1,,,,,,,,,,,,,,left,1,0.9838231181333867,,,,,,,,,,,1070,2019_Mar_14_1402,mf_amp_cond2,3.0.4,60.00384890728228,
clean,&&&&&&&&&,left,sanctity.virtue,gillipede,,,,,,,,,,,,,,,0,219,219,82,,,,,,,,,,,,,AMP,right,0.2836328018761378,0,,,,,,,,,,,,,,right,0,0.2836328018761378,,,,,,,,,,,1070,2019_Mar_14_1402,mf_amp_cond2,3.0.4,60.00384890728228,
encourage,&&&&&&&&&&&,left,authority.virtue,hefurbished,,,,,,,,,,,,,,,0,220,220,51,,,,,,,,,,,,,AMP,right,0.43368693969910055,0,,,,,,,,,,,,,,right,0,0.43368693969910055,,,,,,,,,,,1070,2019_Mar_14_1402,mf_amp_cond2,3.0.4,60.00384890728228,
benefit,&&&&&&&&&&,left,fairness.virtue,imebreaker,,,,,,,,,,,,,,,0,221,221,170,,,,,,,,,,,,,AMP,right,0.6003865337938805,0,,,,,,,,,,,,,,right,0,0.6003865337938805,,,,,,,,,,,1070,2019_Mar_14_1402,mf_amp_cond2,3.0.4,60.00384890728228,
Daptist,&&&&&&&,None,nonword,brudent,,,,,,,,,,,,,,,0,222,222,261,,,,,,,,,,,,,AMP,left,0.2836379334232788,0,,,,,,,,,,,,,,left,0,0.2836379334232788,,,,,,,,,,,1070,2019_Mar_14_1402,mf_amp_cond2,3.0.4,60.00384890728228,
faith,&&&&&&&&&,left,sanctity.virtue,taxpayung,,,,,,,,,,,,,,,0,223,223,127,,,,,,,,,,,,,AMP,right,0.5337116994144253,0,,,,,,,,,,,,,,right,0,0.5337116994144253,,,,,,,,,,,1070,2019_Mar_14_1402,mf_amp_cond2,3.0.4,60.00384890728228,
perfect,&&&&&&&&&&,left,sanctity.virtue,imebreaker,,,,,,,,,,,,,,,0,224,224,273,,,,,,,,,,,,,AMP,right,0.550343685374628,0,,,,,,,,,,,,,,right,0,0.550343685374628,,,,,,,,,,,1070,2019_Mar_14_1402,mf_amp_cond2,3.0.4,60.00384890728228,
hope,&&&&&&&&&&,left,loyalty.virtue,simplustic,,,,,,,,,,,,,,,0,225,225,16,,,,,,,,,,,,,AMP,right,0.383740307790049,0,,,,,,,,,,,,,,right,0,0.383740307790049,,,,,,,,,,,1070,2019_Mar_14_1402,mf_amp_cond2,3.0.4,60.00384890728228,
benefit,&&&&&&&,left,fairness.virtue,Loorish,,,,,,,,,,,,,,,0,226,226,104,,,,,,,,,,,,,AMP,right,0.55035394846891,0,,,,,,,,,,,,,,right,0,0.55035394846891,,,,,,,,,,,1070,2019_Mar_14_1402,mf_amp_cond2,3.0.4,60.00384890728228,
intelligence,&&&&&,left,loyalty.virtue,pulge,,,,,,,,,,,,,,,0,227,227,21,,,,,,,,,,,,,AMP,right,0.3169897830894115,0,,,,,,,,,,,,,,right,0,0.3169897830894115,,,,,,,,,,,1070,2019_Mar_14_1402,mf_amp_cond2,3.0.4,60.00384890728228,
peace,&&&&&&&&,left,care.virtue,clamorek,,,,,,,,,,,,,,,0,228,228,78,,,,,,,,,,,,,AMP,right,0.6004246996760685,0,,,,,,,,,,,,,,right,0,0.6004246996760685,,,,,,,,,,,1070,2019_Mar_14_1402,mf_amp_cond2,3.0.4,60.00384890728228,
opportunity,&&&&&,left,fairness.virtue,pulge,,,,,,,,,,,,,,,0,229,229,274,,,,,,,,,,,,,AMP,right,0.35032014440184867,0,,,,,,,,,,,,,,right,0,0.35032014440184867,,,,,,,,,,,1070,2019_Mar_14_1402,mf_amp_cond2,3.0.4,60.00384890728228,
hand,&&&&&&&&&&&&,left,sanctity.virtue,rorroborated,,,,,,,,,,,,,,,0,230,230,278,,,,,,,,,,,,,AMP,right,0.800290766293756,0,,,,,,,,,,,,,,right,0,0.800290766293756,,,,,,,,,,,1070,2019_Mar_14_1402,mf_amp_cond2,3.0.4,60.00384890728228,
spag,&&&&&&,None,nonword,Boeinf,,,,,,,,,,,,,,,0,231,231,228,,,,,,,,,,,,,AMP,left,0.48369290512277985,0,,,,,,,,,,,,,,left,0,0.48369290512277985,,,,,,,,,,,1070,2019_Mar_14_1402,mf_amp_cond2,3.0.4,60.00384890728228,
refused,&&&&&&&&&&&,right,authority.vice,sowntrodden,,,,,,,,,,,,,,,0,232,232,243,,,,,,,,,,,,,AMP,left,0.43369527846334677,0,,,,,,,,,,,,,,left,0,0.43369527846334677,,,,,,,,,,,1070,2019_Mar_14_1402,mf_amp_cond2,3.0.4,60.00384890728228,
gun,&&&&&&&&,right,authority.vice,glacenta,,,,,,,,,,,,,,,0,233,233,79,,,,,,,,,,,,,AMP,left,0.4170113355878584,0,,,,,,,,,,,,,,left,0,0.4170113355878584,,,,,,,,,,,1070,2019_Mar_14_1402,mf_amp_cond2,3.0.4,60.00384890728228,
shot,&&&&&&&&&&&&,right,care.vice,unreflectuve,,,,,,,,,,,,,,,0,234,234,191,,,,,,,,,,,,,AMP,left,0.5003592083048716,0,,,,,,,,,,,,,,left,0,0.5003592083048716,,,,,,,,,,,1070,2019_Mar_14_1402,mf_amp_cond2,3.0.4,60.00384890728228,
spag,&&&&&&&,None,nonword,troubla,,,,,,,,,,,,,,,0,235,235,325,,,,,,,,,,,,,AMP,left,0.46702018750670504,0,,,,,,,,,,,,,,left,0,0.46702018750670504,,,,,,,,,,,1070,2019_Mar_14_1402,mf_amp_cond2,3.0.4,60.00384890728228,
improve,&&&,left,care.virtue,mih,,,,,,,,,,,,,,,0,236,236,3,,,,,,,,,,,,,AMP,right,0.3836694282942972,0,,,,,,,,,,,,,,right,0,0.3836694282942972,,,,,,,,,,,1070,2019_Mar_14_1402,mf_amp_cond2,3.0.4,60.00384890728228,
crime,&&&&&,right,fairness.vice,noped,,,,,,,,,,,,,,,0,237,237,301,,,,,,,,,,,,,AMP,left,1.0171550830541491,0,,,,,,,,,,,,,,left,0,1.0171550830541491,,,,,,,,,,,1070,2019_Mar_14_1402,mf_amp_cond2,3.0.4,60.00384890728228,
protesters,&&&&&&&&&,right,authority.vice,crilfully,,,,,,,,,,,,,,,0,238,238,167,,,,,,,,,,,,,AMP,right,0.4836980366701482,1,,,,,,,,,,,,,,right,1,0.4836980366701482,,,,,,,,,,,1070,2019_Mar_14_1402,mf_amp_cond2,3.0.4,60.00384890728228,
serial,&&&&&&&&&&,right,sanctity.vice,frojecting,,,,,,,,,,,,,,,0,239,239,157,,,,,,,,,,,,,AMP,left,0.6837722516715985,0,,,,,,,,,,,,,,left,0,0.6837722516715985,,,,,,,,,,,1070,2019_Mar_14_1402,mf_amp_cond2,3.0.4,60.00384890728228,
troops,&&&&&&,right,loyalty.vice,sonvoy,,,,,,,,,,,,,,,0,240,240,292,,,,,,,,,,,,,AMP,right,0.8171084501188943,1,,,,,,,,,,,,,,right,1,0.8171084501188943,,,,,,,,,,,1070,2019_Mar_14_1402,mf_amp_cond2,3.0.4,60.00384890728228,
fighters,&&&&&,right,authority.vice,pulge,,,,,,,,,,,,,,,0,241,241,120,,,,,,,,,,,,,AMP,left,3.63448951368332,0,,,,,,,,,,,,,,left,0,3.63448951368332,,,,,,,,,,,1070,2019_Mar_14_1402,mf_amp_cond2,3.0.4,60.00384890728228,
war,&&&&&&&&&&,right,sanctity.vice,focomotive,,,,,,,,,,,,,,,0,242,242,194,,,,,,,,,,,,,AMP,left,0.48369707450478927,0,,,,,,,,,,,,,,left,0,0.48369707450478927,,,,,,,,,,,1070,2019_Mar_14_1402,mf_amp_cond2,3.0.4,60.00384890728228,
blamed,&&&&&&&&&&,right,loyalty.vice,fonderland,,,,,,,,,,,,,,,0,243,243,210,,,,,,,,,,,,,AMP,left,0.41701358063983207,0,,,,,,,,,,,,,,left,0,0.41701358063983207,,,,,,,,,,,1070,2019_Mar_14_1402,mf_amp_cond2,3.0.4,60.00384890728228,
