words,mask,corr_ans,category,nonwords,tweets,topic,LDT_pracloop.thisRepN,LDT_pracloop.thisTrialN,LDT_pracloop.thisN,LDT_pracloop.thisIndex,LDT_trials.thisRepN,LDT_trials.thisTrialN,LDT_trials.thisN,LDT_trials.thisIndex,AMP_pracloop.thisRepN,AMP_pracloop.thisTrialN,AMP_pracloop.thisN,AMP_pracloop.thisIndex,AMP_trials.thisRepN,AMP_trials.thisTrialN,AMP_trials.thisN,AMP_trials.thisIndex,tweet_loop.thisRepN,tweet_loop.thisTrialN,tweet_loop.thisN,tweet_loop.thisIndex,begin_key.keys,begin_key.rt,key_resp_AMP_instr1.keys,key_resp_AMP_instr1.rt,key_resp_LDT_instr.keys,key_resp_LDT_instr.rt,resp_LDT_prac.keys,resp_LDT_prac.rt,task,keypress,RT,corr,resp_LDT_ready.keys,resp_LDT_ready.rt,resp_LDT.keys,resp_LDT.corr,resp_LDT.rt,LDT_rating.response,LDT_rating.rt,resp_AMP_ready1.keys,resp_AMP_ready1.rt,resp_AMP_prac.keys,resp_AMP_prac.rt,resp_AMP_ready.keys,resp_AMP_ready.rt,resp_AMP.keys,resp_AMP.corr,resp_AMP.rt,AMP_nonword_rating.response,AMP_nonword_rating.rt,AMP_word_rating.response,AMP_word_rating.rt,AMP_random_rating.response,AMP_random_rating.rt,key_resp_LDT_instr_2.keys,key_resp_LDT_instr_2.rt,resp_tweets.keys,resp_tweets.rt,participant,date,expName,psychopyVersion,frameRate,
,,,,,,,,,,,,,,,,,,,,,,,,,,,right,308.1582460925248,,,,,,,,,,,,,,,,,,,,,,,,,,,,,,,,,,,,,1074,2019_Mar_14_1406,mf_amp_cond2,3.0.4,59.99161117409876,
,,,,,,,,,,,,,,,,,,,,,,,,,,,,,right,6.401811996030801,,,,,,,,,,,,,,,,,,,,,,,,,,,,,,,,,,,1074,2019_Mar_14_1406,mf_amp_cond2,3.0.4,59.99161117409876,
,,,,,,,,,,,,,,,,,,,,,,,,,,,,,,,right,2.117458061230309,,,,,,,,,,,,,,,,,,,,,,,,,,,,,,,,,1074,2019_Mar_14_1406,mf_amp_cond2,3.0.4,59.99161117409876,
keyboard,&&&&&&&,,,,,,0,0,0,0,,,,,,,,,,,,,,,,,,,,,,,left,2.834271862906917,LDT_prac,left,2.834271862906917,0,,,,,,,,,,,,,,,,,,,,,,,,,,,1074,2019_Mar_14_1406,mf_amp_cond2,3.0.4,59.99161117409876,
bisebell,&&&&&&&,,,,,,0,1,1,1,,,,,,,,,,,,,,,,,,,,,,,left,4.768072975030918,LDT_prac,left,4.768072975030918,0,,,,,,,,,,,,,,,,,,,,,,,,,,,1074,2019_Mar_14_1406,mf_amp_cond2,3.0.4,59.99161117409876,
,,,,,,,,,,,,,,,,,,,,,,,,,,,,,,,,,,,,,,,right,2.0674182600503173,,,,,,,,,,,,,,,,,,,,,,,,,1074,2019_Mar_14_1406,mf_amp_cond2,3.0.4,59.99161117409876,
men,&&&,left,loyalty.vice,,,,,,,,0,0,0,22,,,,,,,,,,,,,,,,,,,,,LDT,right,3.6177758933777113,0,,,right,0,3.6177758933777113,,,,,,,,,,,,,,,,,,,,,,1074,2019_Mar_14_1406,mf_amp_cond2,3.0.4,59.99161117409876,
ugeasily,&&&&&&&&,right,nonword,,,,,,,,0,1,1,72,,,,,,,,,,,,,,,,,,,,,LDT,left,1.4672680995945484,0,,,left,0,1.4672680995945484,,,,,,,,,,,,,,,,,,,,,,1074,2019_Mar_14_1406,mf_amp_cond2,3.0.4,59.99161117409876,
coom,&&&&,right,nonword,,,,,,,,0,2,2,179,,,,,,,,,,,,,,,,,,,,,LDT,left,4.918100011610022,0,,,left,0,4.918100011610022,,,,,,,,,,,,,,,,,,,,,,1074,2019_Mar_14_1406,mf_amp_cond2,3.0.4,59.99161117409876,
baklara,&&&&&&&,right,nonword,,,,,,,,0,3,3,5,,,,,,,,,,,,,,,,,,,,,LDT,right,1.4839724079361076,1,,,right,1,1.4839724079361076,,,,,,,,,,,,,,,,,,,,,,1074,2019_Mar_14_1406,mf_amp_cond2,3.0.4,59.99161117409876,
towards,&&&&&&&,left,neutral,,,,,,,,0,4,4,167,,,,,,,,,,,,,,,,,,,,,LDT,right,0.983803068507541,0,,,right,0,0.983803068507541,,,,,,,,,,,,,,,,,,,,,,1074,2019_Mar_14_1406,mf_amp_cond2,3.0.4,59.99161117409876,
somehow,&&&&&&&,left,neutral,,,,,,,,0,5,5,165,,,,,,,,,,,,,,,,,,,,,LDT,right,0.9838126900658608,0,,,right,0,0.9838126900658608,,,,,,,,,,,,,,,,,,,,,,1074,2019_Mar_14_1406,mf_amp_cond2,3.0.4,59.99161117409876,
gedious,&&&&&&&,right,nonword,,,,,,,,0,6,6,58,,,,,,,,,,,,,,,,,,,,,LDT,right,0.9004720336574792,1,,,right,1,0.9004720336574792,,,,,,,,,,,,,,,,,,,,,,1074,2019_Mar_14_1406,mf_amp_cond2,3.0.4,59.99161117409876,
fifty,&&&&&,left,neutral,,,,,,,,0,7,7,76,,,,,,,,,,,,,,,,,,,,,LDT,left,0.6670725895269243,1,,,left,1,0.6670725895269243,,,,,,,,,,,,,,,,,,,,,,1074,2019_Mar_14_1406,mf_amp_cond2,3.0.4,59.99161117409876,
shot,&&&&,left,care.vice,,,,,,,,0,8,8,41,,,,,,,,,,,,,,,,,,,,,LDT,right,0.9004636949734959,0,,,right,0,0.9004636949734959,,,,,,,,,,,,,,,,,,,,,,1074,2019_Mar_14_1406,mf_amp_cond2,3.0.4,59.99161117409876,
eight,&&&&&,left,neutral,,,,,,,,0,9,9,189,,,,,,,,,,,,,,,,,,,,,LDT,left,2.86764071048151,1,,,left,1,2.86764071048151,,,,,,,,,,,,,,,,,,,,,,1074,2019_Mar_14_1406,mf_amp_cond2,3.0.4,59.99161117409876,
neputized,&&&&&&&&&,right,nonword,,,,,,,,0,10,10,4,,,,,,,,,,,,,,,,,,,,,LDT,left,1.4005865302028724,0,,,left,0,1.4005865302028724,,,,,,,,,,,,,,,,,,,,,,1074,2019_Mar_14_1406,mf_amp_cond2,3.0.4,59.99161117409876,
spag,&&&&,None,nonword,,,,,,,,0,11,11,88,,,,,,,,,,,,,,,,,,,,,LDT,right,0.5337190723021195,0,,,right,0,0.5337190723021195,,,,,,,,,,,,,,,,,,,,,,1074,2019_Mar_14_1406,mf_amp_cond2,3.0.4,59.99161117409876,
noped,&&&&&,right,nonword,,,,,,,,0,12,12,31,,,,,,,,,,,,,,,,,,,,,LDT,left,0.6503932972375424,0,,,left,0,0.6503932972375424,,,,,,,,,,,,,,,,,,,,,,1074,2019_Mar_14_1406,mf_amp_cond2,3.0.4,59.99161117409876,
galamitous,&&&&&&&&&&,right,nonword,,,,,,,,0,13,13,171,,,,,,,,,,,,,,,,,,,,,LDT,right,0.8337750697724005,1,,,right,1,0.8337750697724005,,,,,,,,,,,,,,,,,,,,,,1074,2019_Mar_14_1406,mf_amp_cond2,3.0.4,59.99161117409876,
everything,&&&&&&&&&&,left,neutral,,,,,,,,0,14,14,24,,,,,,,,,,,,,,,,,,,,,LDT,right,2.4841452752696114,0,,,right,0,2.4841452752696114,,,,,,,,,,,,,,,,,,,,,,1074,2019_Mar_14_1406,mf_amp_cond2,3.0.4,59.99161117409876,
prosecution,&&&&&&&&&&&,left,authority.vice,,,,,,,,0,15,15,168,,,,,,,,,,,,,,,,,,,,,LDT,right,0.6837361666043762,0,,,right,0,0.6837361666043762,,,,,,,,,,,,,,,,,,,,,,1074,2019_Mar_14_1406,mf_amp_cond2,3.0.4,59.99161117409876,
squets,&&&&&&,right,nonword,,,,,,,,0,16,16,196,,,,,,,,,,,,,,,,,,,,,LDT,right,2.8509306292048677,1,,,right,1,2.8509306292048677,,,,,,,,,,,,,,,,,,,,,,1074,2019_Mar_14_1406,mf_amp_cond2,3.0.4,59.99161117409876,
myself,&&&&&&,left,neutral,,,,,,,,0,17,17,74,,,,,,,,,,,,,,,,,,,,,LDT,right,0.7837638125488411,0,,,right,0,0.7837638125488411,,,,,,,,,,,,,,,,,,,,,,1074,2019_Mar_14_1406,mf_amp_cond2,3.0.4,59.99161117409876,
racist,&&&&&&,left,sanctity.vice,,,,,,,,0,18,18,191,,,,,,,,,,,,,,,,,,,,,LDT,right,0.8337725040235,0,,,right,0,0.8337725040235,,,,,,,,,,,,,,,,,,,,,,1074,2019_Mar_14_1406,mf_amp_cond2,3.0.4,59.99161117409876,
prones,&&&&&&,right,nonword,,,,,,,,0,19,19,81,,,,,,,,,,,,,,,,,,,,,LDT,right,1.1338525553896943,1,,,right,1,1.1338525553896943,,,,,,,,,,,,,,,,,,,,,,1074,2019_Mar_14_1406,mf_amp_cond2,3.0.4,59.99161117409876,
carvels,&&&&&&&,None,nonword,,,,,,,,0,20,20,60,,,,,,,,,,,,,,,,,,,,,LDT,left,0.8504559656548736,0,,,left,0,0.8504559656548736,,,,,,,,,,,,,,,,,,,,,,1074,2019_Mar_14_1406,mf_amp_cond2,3.0.4,59.99161117409876,
framo,&&&&&,right,nonword,,,,,,,,0,21,21,111,,,,,,,,,,,,,,,,,,,,,LDT,right,0.767090934631824,1,,,right,1,0.767090934631824,,,,,,,,,,,,,,,,,,,,,,1074,2019_Mar_14_1406,mf_amp_cond2,3.0.4,59.99161117409876,
counpy's,&&&&&&&&,right,nonword,,,,,,,,0,22,22,79,,,,,,,,,,,,,,,,,,,,,LDT,right,0.8504479476894176,1,,,right,1,0.8504479476894176,,,,,,,,,,,,,,,,,,,,,,1074,2019_Mar_14_1406,mf_amp_cond2,3.0.4,59.99161117409876,
seem,&&&&,left,neutral,,,,,,,,0,23,23,198,,,,,,,,,,,,,,,,,,,,,LDT,right,0.9338655765654948,0,,,right,0,0.9338655765654948,,,,,,,,,,,,,,,,,,,,,,1074,2019_Mar_14_1406,mf_amp_cond2,3.0.4,59.99161117409876,
benefit,&&&&&&&,left,fairness.virtue,,,,,,,,0,24,24,65,,,,,,,,,,,,,,,,,,,,,LDT,left,0.817004372677502,1,,,left,1,0.817004372677502,,,,,,,,,,,,,,,,,,,,,,1074,2019_Mar_14_1406,mf_amp_cond2,3.0.4,59.99161117409876,
actively,&&&&&&&&,left,authority.virtue,,,,,,,,0,25,25,80,,,,,,,,,,,,,,,,,,,,,LDT,right,0.4336705796474689,0,,,right,0,0.4336705796474689,,,,,,,,,,,,,,,,,,,,,,1074,2019_Mar_14_1406,mf_amp_cond2,3.0.4,59.99161117409876,
clattening,&&&&&&&&&&,right,nonword,,,,,,,,0,26,26,26,,,,,,,,,,,,,,,,,,,,,LDT,left,0.5170497222895847,0,,,left,0,0.5170497222895847,,,,,,,,,,,,,,,,,,,,,,1074,2019_Mar_14_1406,mf_amp_cond2,3.0.4,59.99161117409876,
fighters,&&&&&&&&,left,authority.vice,,,,,,,,0,27,27,147,,,,,,,,,,,,,,,,,,,,,LDT,right,0.5837229529972774,0,,,right,0,0.5837229529972774,,,,,,,,,,,,,,,,,,,,,,1074,2019_Mar_14_1406,mf_amp_cond2,3.0.4,59.99161117409876,
scock,&&&&&,right,nonword,,,,,,,,0,28,28,108,,,,,,,,,,,,,,,,,,,,,LDT,right,0.7504196603076707,1,,,right,1,0.7504196603076707,,,,,,,,,,,,,,,,,,,,,,1074,2019_Mar_14_1406,mf_amp_cond2,3.0.4,59.99161117409876,
divility,&&&&&&&&,right,nonword,,,,,,,,0,29,29,100,,,,,,,,,,,,,,,,,,,,,LDT,right,1.5339535176096888,1,,,right,1,1.5339535176096888,,,,,,,,,,,,,,,,,,,,,,1074,2019_Mar_14_1406,mf_amp_cond2,3.0.4,59.99161117409876,
friends,&&&&&&&,left,loyalty.virtue,,,,,,,,0,30,30,106,,,,,,,,,,,,,,,,,,,,,LDT,right,0.600224887892864,0,,,right,0,0.600224887892864,,,,,,,,,,,,,,,,,,,,,,1074,2019_Mar_14_1406,mf_amp_cond2,3.0.4,59.99161117409876,
focomotive,&&&&&&&&&&,right,nonword,,,,,,,,0,31,31,119,,,,,,,,,,,,,,,,,,,,,LDT,right,1.1004955744037943,1,,,right,1,1.1004955744037943,,,,,,,,,,,,,,,,,,,,,,1074,2019_Mar_14_1406,mf_amp_cond2,3.0.4,59.99161117409876,
protesters,&&&&&&&&&&,left,authority.vice,,,,,,,,0,32,32,143,,,,,,,,,,,,,,,,,,,,,LDT,right,1.433925871665224,0,,,right,0,1.433925871665224,,,,,,,,,,,,,,,,,,,,,,1074,2019_Mar_14_1406,mf_amp_cond2,3.0.4,59.99161117409876,
vurtain,&&&&&&&,right,nonword,,,,,,,,0,33,33,0,,,,,,,,,,,,,,,,,,,,,LDT,right,0.18361846287257322,1,,,right,1,0.18361846287257322,,,,,,,,,,,,,,,,,,,,,,1074,2019_Mar_14_1406,mf_amp_cond2,3.0.4,59.99161117409876,
safe,&&&&,left,care.virtue,,,,,,,,0,34,34,115,,,,,,,,,,,,,,,,,,,,,LDT,right,1.2171977018585949,0,,,right,0,1.2171977018585949,,,,,,,,,,,,,,,,,,,,,,1074,2019_Mar_14_1406,mf_amp_cond2,3.0.4,59.99161117409876,
Oregoniuns,&&&&&&&&&&,right,nonword,,,,,,,,0,35,35,105,,,,,,,,,,,,,,,,,,,,,LDT,left,0.8504691151181305,0,,,left,0,0.8504691151181305,,,,,,,,,,,,,,,,,,,,,,1074,2019_Mar_14_1406,mf_amp_cond2,3.0.4,59.99161117409876,
wherever,&&&&&&&&,left,neutral,,,,,,,,0,36,36,73,,,,,,,,,,,,,,,,,,,,,LDT,right,0.6170706331436122,0,,,right,0,0.6170706331436122,,,,,,,,,,,,,,,,,,,,,,1074,2019_Mar_14_1406,mf_amp_cond2,3.0.4,59.99161117409876,
synchronazers,&&&&&&&&&&&&&,right,nonword,,,,,,,,0,37,37,44,,,,,,,,,,,,,,,,,,,,,LDT,right,1.0005179605632293,1,,,right,1,1.0005179605632293,,,,,,,,,,,,,,,,,,,,,,1074,2019_Mar_14_1406,mf_amp_cond2,3.0.4,59.99161117409876,
lenon,&&&&&,right,nonword,,,,,,,,0,38,38,193,,,,,,,,,,,,,,,,,,,,,LDT,right,0.9004402825146371,1,,,right,1,0.9004402825146371,,,,,,,,,,,,,,,,,,,,,,1074,2019_Mar_14_1406,mf_amp_cond2,3.0.4,59.99161117409876,
serial,&&&&&&,left,sanctity.vice,,,,,,,,0,39,39,21,,,,,,,,,,,,,,,,,,,,,LDT,right,0.767082916666368,0,,,right,0,0.767082916666368,,,,,,,,,,,,,,,,,,,,,,1074,2019_Mar_14_1406,mf_amp_cond2,3.0.4,59.99161117409876,
mightingale,&&&&&&&&&&&,right,nonword,,,,,,,,0,40,40,90,,,,,,,,,,,,,,,,,,,,,LDT,right,1.5006193076453656,1,,,right,1,1.5006193076453656,,,,,,,,,,,,,,,,,,,,,,1074,2019_Mar_14_1406,mf_amp_cond2,3.0.4,59.99161117409876,
nomaric,&&&&&&&,None,nonword,,,,,,,,0,41,41,126,,,,,,,,,,,,,,,,,,,,,LDT,left,1.2005261068159143,0,,,left,0,1.2005261068159143,,,,,,,,,,,,,,,,,,,,,,1074,2019_Mar_14_1406,mf_amp_cond2,3.0.4,59.99161117409876,
Daptist,&&&&&&&,right,nonword,,,,,,,,0,42,42,2,,,,,,,,,,,,,,,,,,,,,LDT,right,0.5337197137394014,1,,,right,1,0.5337197137394014,,,,,,,,,,,,,,,,,,,,,,1074,2019_Mar_14_1406,mf_amp_cond2,3.0.4,59.99161117409876,
victims,&&&&&&&,left,care.vice,,,,,,,,0,43,43,16,,,,,,,,,,,,,,,,,,,,,LDT,right,0.7504555807925044,0,,,right,0,0.7504555807925044,,,,,,,,,,,,,,,,,,,,,,1074,2019_Mar_14_1406,mf_amp_cond2,3.0.4,59.99161117409876,
wump,&&&&,right,nonword,,,,,,,,0,44,44,130,,,,,,,,,,,,,,,,,,,,,LDT,right,1.6339045118052127,1,,,right,1,1.6339045118052127,,,,,,,,,,,,,,,,,,,,,,1074,2019_Mar_14_1406,mf_amp_cond2,3.0.4,59.99161117409876,
latterly,&&&&&&&&,left,neutral,,,,,,,,0,45,45,129,,,,,,,,,,,,,,,,,,,,,LDT,left,1.0004830022342048,1,,,left,1,1.0004830022342048,,,,,,,,,,,,,,,,,,,,,,1074,2019_Mar_14_1406,mf_amp_cond2,3.0.4,59.99161117409876,
emports,&&&&&&&,right,nonword,,,,,,,,0,46,46,109,,,,,,,,,,,,,,,,,,,,,LDT,right,0.583694729759145,1,,,right,1,0.583694729759145,,,,,,,,,,,,,,,,,,,,,,1074,2019_Mar_14_1406,mf_amp_cond2,3.0.4,59.99161117409876,
discovars,&&&&&&&&&,right,nonword,,,,,,,,0,47,47,117,,,,,,,,,,,,,,,,,,,,,LDT,right,0.6003727391744178,1,,,right,1,0.6003727391744178,,,,,,,,,,,,,,,,,,,,,,1074,2019_Mar_14_1406,mf_amp_cond2,3.0.4,59.99161117409876,
couldnt,&&&&&&&,left,neutral,,,,,,,,0,48,48,197,,,,,,,,,,,,,,,,,,,,,LDT,left,1.050515747604777,1,,,left,1,1.050515747604777,,,,,,,,,,,,,,,,,,,,,,1074,2019_Mar_14_1406,mf_amp_cond2,3.0.4,59.99161117409876,
papert,&&&&&&,right,nonword,,,,,,,,0,49,49,29,,,,,,,,,,,,,,,,,,,,,LDT,right,0.4670038274557555,1,,,right,1,0.4670038274557555,,,,,,,,,,,,,,,,,,,,,,1074,2019_Mar_14_1406,mf_amp_cond2,3.0.4,59.99161117409876,
ilportation,&&&&&&&&&&&,right,nonword,,,,,,,,0,50,50,159,,,,,,,,,,,,,,,,,,,,,LDT,right,0.4836872890873565,1,,,right,1,0.4836872890873565,,,,,,,,,,,,,,,,,,,,,,1074,2019_Mar_14_1406,mf_amp_cond2,3.0.4,59.99161117409876,
taxpayung,&&&&&&&&&,right,nonword,,,,,,,,0,51,51,169,,,,,,,,,,,,,,,,,,,,,LDT,left,0.7503702696408254,0,,,left,0,0.7503702696408254,,,,,,,,,,,,,,,,,,,,,,1074,2019_Mar_14_1406,mf_amp_cond2,3.0.4,59.99161117409876,
slavery,&&&&&&&,left,loyalty.vice,,,,,,,,0,52,52,153,,,,,,,,,,,,,,,,,,,,,LDT,right,0.850272835325768,0,,,right,0,0.850272835325768,,,,,,,,,,,,,,,,,,,,,,1074,2019_Mar_14_1406,mf_amp_cond2,3.0.4,59.99161117409876,
anything,&&&&&&&&,left,neutral,,,,,,,,0,53,53,155,,,,,,,,,,,,,,,,,,,,,LDT,right,1.1338618562294869,0,,,right,0,1.1338618562294869,,,,,,,,,,,,,,,,,,,,,,1074,2019_Mar_14_1406,mf_amp_cond2,3.0.4,59.99161117409876,
gazily,&&&&&&,right,nonword,,,,,,,,0,54,54,122,,,,,,,,,,,,,,,,,,,,,LDT,left,0.7670858031340231,0,,,left,0,0.7670858031340231,,,,,,,,,,,,,,,,,,,,,,1074,2019_Mar_14_1406,mf_amp_cond2,3.0.4,59.99161117409876,
ebbitter,&&&&&&&&,right,nonword,,,,,,,,0,55,55,134,,,,,,,,,,,,,,,,,,,,,LDT,right,0.4336975200112647,1,,,right,1,0.4336975200112647,,,,,,,,,,,,,,,,,,,,,,1074,2019_Mar_14_1406,mf_amp_cond2,3.0.4,59.99161117409876,
pharing,&&&&&&&,right,nonword,,,,,,,,0,56,56,11,,,,,,,,,,,,,,,,,,,,,LDT,left,0.9004550355709853,0,,,left,0,0.9004550355709853,,,,,,,,,,,,,,,,,,,,,,1074,2019_Mar_14_1406,mf_amp_cond2,3.0.4,59.99161117409876,
precificity,&&&&&&&&&&&,right,nonword,,,,,,,,0,57,57,96,,,,,,,,,,,,,,,,,,,,,LDT,right,0.41700860616333557,1,,,right,1,0.41700860616333557,,,,,,,,,,,,,,,,,,,,,,1074,2019_Mar_14_1406,mf_amp_cond2,3.0.4,59.99161117409876,
thabbily,&&&&&&&&,right,nonword,,,,,,,,0,58,58,113,,,,,,,,,,,,,,,,,,,,,LDT,left,0.7170732630361272,0,,,left,0,0.7170732630361272,,,,,,,,,,,,,,,,,,,,,,1074,2019_Mar_14_1406,mf_amp_cond2,3.0.4,59.99161117409876,
become,&&&&&&,left,neutral,,,,,,,,0,59,59,178,,,,,,,,,,,,,,,,,,,,,LDT,right,0.4837158330442435,0,,,right,0,0.4837158330442435,,,,,,,,,,,,,,,,,,,,,,1074,2019_Mar_14_1406,mf_amp_cond2,3.0.4,59.99161117409876,
dignity,&&&&&&&,left,sanctity.virtue,,,,,,,,0,60,60,89,,,,,,,,,,,,,,,,,,,,,LDT,right,0.6003913408540029,0,,,right,0,0.6003913408540029,,,,,,,,,,,,,,,,,,,,,,1074,2019_Mar_14_1406,mf_amp_cond2,3.0.4,59.99161117409876,
further,&&&&&&&,left,neutral,,,,,,,,0,61,61,140,,,,,,,,,,,,,,,,,,,,,LDT,right,0.40032610668777124,0,,,right,0,0.40032610668777124,,,,,,,,,,,,,,,,,,,,,,1074,2019_Mar_14_1406,mf_amp_cond2,3.0.4,59.99161117409876,
victim,&&&&&&,left,care.vice,,,,,,,,0,62,62,3,,,,,,,,,,,,,,,,,,,,,LDT,left,0.36698933097454756,1,,,left,1,0.36698933097454756,,,,,,,,,,,,,,,,,,,,,,1074,2019_Mar_14_1406,mf_amp_cond2,3.0.4,59.99161117409876,
cromiscuity,&&&&&&&&&&&,right,nonword,,,,,,,,0,63,63,157,,,,,,,,,,,,,,,,,,,,,LDT,right,0.35031709449458504,1,,,right,1,0.35031709449458504,,,,,,,,,,,,,,,,,,,,,,1074,2019_Mar_14_1406,mf_amp_cond2,3.0.4,59.99161117409876,
hefurbished,&&&&&&&&&&&,right,nonword,,,,,,,,0,64,64,67,,,,,,,,,,,,,,,,,,,,,LDT,right,0.767082916666368,1,,,right,1,0.767082916666368,,,,,,,,,,,,,,,,,,,,,,1074,2019_Mar_14_1406,mf_amp_cond2,3.0.4,59.99161117409876,
penalty,&&&&&&&,left,authority.vice,,,,,,,,0,65,65,127,,,,,,,,,,,,,,,,,,,,,LDT,left,0.36699670750249425,1,,,left,1,0.36699670750249425,,,,,,,,,,,,,,,,,,,,,,1074,2019_Mar_14_1406,mf_amp_cond2,3.0.4,59.99161117409876,
ronviolence,&&&&&&&&&&&,right,nonword,,,,,,,,0,66,66,151,,,,,,,,,,,,,,,,,,,,,LDT,right,0.3336820613740201,1,,,right,1,0.3336820613740201,,,,,,,,,,,,,,,,,,,,,,1074,2019_Mar_14_1406,mf_amp_cond2,3.0.4,59.99161117409876,
thru,&&&&,left,neutral,,,,,,,,0,67,67,1,,,,,,,,,,,,,,,,,,,,,LDT,left,0.40034342549279245,1,,,left,1,0.40034342549279245,,,,,,,,,,,,,,,,,,,,,,1074,2019_Mar_14_1406,mf_amp_cond2,3.0.4,59.99161117409876,
there,&&&&&,left,neutral,,,,,,,,0,68,68,99,,,,,,,,,,,,,,,,,,,,,LDT,right,0.2670110756967006,0,,,right,0,0.2670110756967006,,,,,,,,,,,,,,,,,,,,,,1074,2019_Mar_14_1406,mf_amp_cond2,3.0.4,59.99161117409876,
each,&&&&,left,neutral,,,,,,,,0,69,69,145,,,,,,,,,,,,,,,,,,,,,LDT,right,0.6337210607575798,0,,,right,0,0.6337210607575798,,,,,,,,,,,,,,,,,,,,,,1074,2019_Mar_14_1406,mf_amp_cond2,3.0.4,59.99161117409876,
ammessment,&&&&&&&&&&,right,nonword,,,,,,,,0,70,70,135,,,,,,,,,,,,,,,,,,,,,LDT,right,0.683741939539459,1,,,right,1,0.683741939539459,,,,,,,,,,,,,,,,,,,,,,1074,2019_Mar_14_1406,mf_amp_cond2,3.0.4,59.99161117409876,
gandbrake,&&&&&&&&&,right,nonword,,,,,,,,0,71,71,46,,,,,,,,,,,,,,,,,,,,,LDT,right,3.5344365198438936,1,,,right,1,3.5344365198438936,,,,,,,,,,,,,,,,,,,,,,1074,2019_Mar_14_1406,mf_amp_cond2,3.0.4,59.99161117409876,
anyhow,&&&&&&,left,neutral,,,,,,,,0,72,72,187,,,,,,,,,,,,,,,,,,,,,LDT,left,0.5003563183811366,1,,,left,1,0.5003563183811366,,,,,,,,,,,,,,,,,,,,,,1074,2019_Mar_14_1406,mf_amp_cond2,3.0.4,59.99161117409876,
integrity,&&&&&&&&&,left,fairness.virtue,,,,,,,,0,73,73,139,,,,,,,,,,,,,,,,,,,,,LDT,right,0.4170076440075263,0,,,right,0,0.4170076440075263,,,,,,,,,,,,,,,,,,,,,,1074,2019_Mar_14_1406,mf_amp_cond2,3.0.4,59.99161117409876,
reviked,&&&&&&&,right,nonword,,,,,,,,0,74,74,195,,,,,,,,,,,,,,,,,,,,,LDT,right,0.7170777530966461,1,,,right,1,0.7170777530966461,,,,,,,,,,,,,,,,,,,,,,1074,2019_Mar_14_1406,mf_amp_cond2,3.0.4,59.99161117409876,
could,&&&&&,left,neutral,,,,,,,,0,75,75,56,,,,,,,,,,,,,,,,,,,,,LDT,right,0.9171109154015085,0,,,right,0,0.9171109154015085,,,,,,,,,,,,,,,,,,,,,,1074,2019_Mar_14_1406,mf_amp_cond2,3.0.4,59.99161117409876,
therefore,&&&&&&&&&,left,neutral,,,,,,,,0,76,76,184,,,,,,,,,,,,,,,,,,,,,LDT,right,0.7337641011956748,0,,,right,0,0.7337641011956748,,,,,,,,,,,,,,,,,,,,,,1074,2019_Mar_14_1406,mf_amp_cond2,3.0.4,59.99161117409876,
praise,&&&&&&,left,authority.virtue,,,,,,,,0,77,77,97,,,,,,,,,,,,,,,,,,,,,LDT,right,0.5503008661326021,0,,,right,0,0.5503008661326021,,,,,,,,,,,,,,,,,,,,,,1074,2019_Mar_14_1406,mf_amp_cond2,3.0.4,59.99161117409876,
threatened,&&&&&&&&&&,left,fairness.vice,,,,,,,,0,78,78,107,,,,,,,,,,,,,,,,,,,,,LDT,right,0.9838226323429353,0,,,right,0,0.9838226323429353,,,,,,,,,,,,,,,,,,,,,,1074,2019_Mar_14_1406,mf_amp_cond2,3.0.4,59.99161117409876,
stindig,&&&&&&&,right,nonword,,,,,,,,0,79,79,121,,,,,,,,,,,,,,,,,,,,,LDT,left,0.7337705155680396,0,,,left,0,0.7337705155680396,,,,,,,,,,,,,,,,,,,,,,1074,2019_Mar_14_1406,mf_amp_cond2,3.0.4,59.99161117409876,
toward,&&&&&&,left,neutral,,,,,,,,0,80,80,25,,,,,,,,,,,,,,,,,,,,,LDT,right,0.5170291962983811,0,,,right,0,0.5170291962983811,,,,,,,,,,,,,,,,,,,,,,1074,2019_Mar_14_1406,mf_amp_cond2,3.0.4,59.99161117409876,
else,&&&&,left,neutral,,,,,,,,0,81,81,183,,,,,,,,,,,,,,,,,,,,,LDT,right,0.5837043513176923,0,,,right,0,0.5837043513176923,,,,,,,,,,,,,,,,,,,,,,1074,2019_Mar_14_1406,mf_amp_cond2,3.0.4,59.99161117409876,
fair,&&&&,left,fairness.virtue,,,,,,,,0,82,82,32,,,,,,,,,,,,,,,,,,,,,LDT,right,0.48372032310476243,0,,,right,0,0.48372032310476243,,,,,,,,,,,,,,,,,,,,,,1074,2019_Mar_14_1406,mf_amp_cond2,3.0.4,59.99161117409876,
done,&&&&,left,neutral,,,,,,,,0,83,83,39,,,,,,,,,,,,,,,,,,,,,LDT,right,0.6170578043988826,0,,,right,0,0.6170578043988826,,,,,,,,,,,,,,,,,,,,,,1074,2019_Mar_14_1406,mf_amp_cond2,3.0.4,59.99161117409876,
amount,&&&&&&,left,neutral,,,,,,,,0,84,84,172,,,,,,,,,,,,,,,,,,,,,LDT,left,0.7671323073329859,1,,,left,1,0.7671323073329859,,,,,,,,,,,,,,,,,,,,,,1074,2019_Mar_14_1406,mf_amp_cond2,3.0.4,59.99161117409876,
crime,&&&&&,left,fairness.vice,,,,,,,,0,85,85,146,,,,,,,,,,,,,,,,,,,,,LDT,right,0.36684596975374006,0,,,right,0,0.36684596975374006,,,,,,,,,,,,,,,,,,,,,,1074,2019_Mar_14_1406,mf_amp_cond2,3.0.4,59.99161117409876,
refuejing,&&&&&&&&&,right,nonword,,,,,,,,0,86,86,142,,,,,,,,,,,,,,,,,,,,,LDT,left,0.7670877274456416,0,,,left,0,0.7670877274456416,,,,,,,,,,,,,,,,,,,,,,1074,2019_Mar_14_1406,mf_amp_cond2,3.0.4,59.99161117409876,
fonderland,&&&&&&&&&&,right,nonword,,,,,,,,0,87,87,137,,,,,,,,,,,,,,,,,,,,,LDT,right,0.3669983110958128,1,,,right,1,0.3669983110958128,,,,,,,,,,,,,,,,,,,,,,1074,2019_Mar_14_1406,mf_amp_cond2,3.0.4,59.99161117409876,
Phintoism,&&&&&&&&&,right,nonword,,,,,,,,0,88,88,38,,,,,,,,,,,,,,,,,,,,,LDT,left,0.4336843705480078,0,,,left,0,0.4336843705480078,,,,,,,,,,,,,,,,,,,,,,1074,2019_Mar_14_1406,mf_amp_cond2,3.0.4,59.99161117409876,
noone,&&&&&,left,neutral,,,,,,,,0,89,89,120,,,,,,,,,,,,,,,,,,,,,LDT,right,0.6170533143383636,0,,,right,0,0.6170533143383636,,,,,,,,,,,,,,,,,,,,,,1074,2019_Mar_14_1406,mf_amp_cond2,3.0.4,59.99161117409876,
were,&&&&,left,neutral,,,,,,,,0,90,90,144,,,,,,,,,,,,,,,,,,,,,LDT,right,0.6837409773836498,0,,,right,0,0.6837409773836498,,,,,,,,,,,,,,,,,,,,,,1074,2019_Mar_14_1406,mf_amp_cond2,3.0.4,59.99161117409876,
iptervention,&&&&&&&&&&&&,right,nonword,,,,,,,,0,91,91,170,,,,,,,,,,,,,,,,,,,,,LDT,right,0.7670938210992517,1,,,right,1,0.7670938210992517,,,,,,,,,,,,,,,,,,,,,,1074,2019_Mar_14_1406,mf_amp_cond2,3.0.4,59.99161117409876,
frojecting,&&&&&&&&&&,right,nonword,,,,,,,,0,92,92,141,,,,,,,,,,,,,,,,,,,,,LDT,right,0.9004524698220848,1,,,right,1,0.9004524698220848,,,,,,,,,,,,,,,,,,,,,,1074,2019_Mar_14_1406,mf_amp_cond2,3.0.4,59.99161117409876,
been,&&&&,left,neutral,,,,,,,,0,93,93,59,,,,,,,,,,,,,,,,,,,,,LDT,right,0.8671102418923056,0,,,right,0,0.8671102418923056,,,,,,,,,,,,,,,,,,,,,,1074,2019_Mar_14_1406,mf_amp_cond2,3.0.4,59.99161117409876,
win,&&&,left,fairness.virtue,,,,,,,,0,94,94,13,,,,,,,,,,,,,,,,,,,,,LDT,right,0.8336333121444568,0,,,right,0,0.8336333121444568,,,,,,,,,,,,,,,,,,,,,,1074,2019_Mar_14_1406,mf_amp_cond2,3.0.4,59.99161117409876,
rorroborated,&&&&&&&&&&&&,right,nonword,,,,,,,,0,95,95,136,,,,,,,,,,,,,,,,,,,,,LDT,right,0.8171076440717115,1,,,right,1,0.8171076440717115,,,,,,,,,,,,,,,,,,,,,,1074,2019_Mar_14_1406,mf_amp_cond2,3.0.4,59.99161117409876,
about,&&&&&,left,neutral,,,,,,,,0,96,96,166,,,,,,,,,,,,,,,,,,,,,LDT,right,0.5837178214994765,0,,,right,0,0.5837178214994765,,,,,,,,,,,,,,,,,,,,,,1074,2019_Mar_14_1406,mf_amp_cond2,3.0.4,59.99161117409876,
hope,&&&&,left,loyalty.virtue,,,,,,,,0,97,97,163,,,,,,,,,,,,,,,,,,,,,LDT,right,0.5170314413287542,0,,,right,0,0.5170314413287542,,,,,,,,,,,,,,,,,,,,,,1074,2019_Mar_14_1406,mf_amp_cond2,3.0.4,59.99161117409876,
support,&&&&&&&,left,loyalty.virtue,,,,,,,,0,98,98,103,,,,,,,,,,,,,,,,,,,,,LDT,right,0.6003836436073016,0,,,right,0,0.6003836436073016,,,,,,,,,,,,,,,,,,,,,,1074,2019_Mar_14_1406,mf_amp_cond2,3.0.4,59.99161117409876,
either,&&&&&&,left,neutral,,,,,,,,0,99,99,110,,,,,,,,,,,,,,,,,,,,,LDT,right,0.45035628630921565,0,,,right,0,0.45035628630921565,,,,,,,,,,,,,,,,,,,,,,1074,2019_Mar_14_1406,mf_amp_cond2,3.0.4,59.99161117409876,
dormandi,&&&&&&&&,None,nonword,,,,,,,,0,100,100,192,,,,,,,,,,,,,,,,,,,,,LDT,left,0.7671364766749775,0,,,left,0,0.7671364766749775,,,,,,,,,,,,,,,,,,,,,,1074,2019_Mar_14_1406,mf_amp_cond2,3.0.4,59.99161117409876,
least,&&&&&,left,neutral,,,,,,,,0,101,101,28,,,,,,,,,,,,,,,,,,,,,LDT,right,0.9670298056637421,0,,,right,0,0.9670298056637421,,,,,,,,,,,,,,,,,,,,,,1074,2019_Mar_14_1406,mf_amp_cond2,3.0.4,59.99161117409876,
amoungst,&&&&&&&&,left,neutral,,,,,,,,0,102,102,9,,,,,,,,,,,,,,,,,,,,,LDT,right,0.7837888286010184,0,,,right,0,0.7837888286010184,,,,,,,,,,,,,,,,,,,,,,1074,2019_Mar_14_1406,mf_amp_cond2,3.0.4,59.99161117409876,
nomparisons,&&&&&&&&&&&,right,nonword,,,,,,,,0,103,103,36,,,,,,,,,,,,,,,,,,,,,LDT,left,0.6170475414030534,0,,,left,0,0.6170475414030534,,,,,,,,,,,,,,,,,,,,,,1074,2019_Mar_14_1406,mf_amp_cond2,3.0.4,59.99161117409876,
tabin,&&&&&,right,nonword,,,,,,,,0,104,104,150,,,,,,,,,,,,,,,,,,,,,LDT,right,0.517054853787613,1,,,right,1,0.517054853787613,,,,,,,,,,,,,,,,,,,,,,1074,2019_Mar_14_1406,mf_amp_cond2,3.0.4,59.99161117409876,
growth,&&&&&&,left,care.virtue,,,,,,,,0,105,105,138,,,,,,,,,,,,,,,,,,,,,LDT,right,0.6670584779078581,0,,,right,0,0.6670584779078581,,,,,,,,,,,,,,,,,,,,,,1074,2019_Mar_14_1406,mf_amp_cond2,3.0.4,59.99161117409876,
photocalkodes,&&&&&&&&&&&&&,right,nonword,,,,,,,,0,106,106,55,,,,,,,,,,,,,,,,,,,,,LDT,left,0.7504276782728994,0,,,left,0,0.7504276782728994,,,,,,,,,,,,,,,,,,,,,,1074,2019_Mar_14_1406,mf_amp_cond2,3.0.4,59.99161117409876,
whither,&&&&&&&,left,neutral,,,,,,,,0,107,107,42,,,,,,,,,,,,,,,,,,,,,LDT,right,1.83401560873358,0,,,right,0,1.83401560873358,,,,,,,,,,,,,,,,,,,,,,1074,2019_Mar_14_1406,mf_amp_cond2,3.0.4,59.99161117409876,
clamorek,&&&&&&&&,right,nonword,,,,,,,,0,108,108,43,,,,,,,,,,,,,,,,,,,,,LDT,left,0.617040485593634,0,,,left,0,0.617040485593634,,,,,,,,,,,,,,,,,,,,,,1074,2019_Mar_14_1406,mf_amp_cond2,3.0.4,59.99161117409876,
lies,&&&&,left,fairness.vice,,,,,,,,0,109,109,87,,,,,,,,,,,,,,,,,,,,,LDT,right,0.2503128610087515,0,,,right,0,0.2503128610087515,,,,,,,,,,,,,,,,,,,,,,1074,2019_Mar_14_1406,mf_amp_cond2,3.0.4,59.99161117409876,
juck,&&&&,right,nonword,,,,,,,,0,110,110,34,,,,,,,,,,,,,,,,,,,,,LDT,right,0.717079677408492,1,,,right,1,0.717079677408492,,,,,,,,,,,,,,,,,,,,,,1074,2019_Mar_14_1406,mf_amp_cond2,3.0.4,59.99161117409876,
oam,&&&,right,nonword,,,,,,,,0,111,111,82,,,,,,,,,,,,,,,,,,,,,LDT,right,0.6503961837049701,1,,,right,1,0.6503961837049701,,,,,,,,,,,,,,,,,,,,,,1074,2019_Mar_14_1406,mf_amp_cond2,3.0.4,59.99161117409876,
forty,&&&&&,left,neutral,,,,,,,,0,112,112,98,,,,,,,,,,,,,,,,,,,,,LDT,right,0.45037168080284573,0,,,right,0,0.45037168080284573,,,,,,,,,,,,,,,,,,,,,,1074,2019_Mar_14_1406,mf_amp_cond2,3.0.4,59.99161117409876,
injured,&&&&&&&,left,care.vice,,,,,,,,0,113,113,156,,,,,,,,,,,,,,,,,,,,,LDT,right,0.9003485569908207,0,,,right,0,0.9003485569908207,,,,,,,,,,,,,,,,,,,,,,1074,2019_Mar_14_1406,mf_amp_cond2,3.0.4,59.99161117409876,
honored,&&&&&&&,left,authority.virtue,,,,,,,,0,114,114,190,,,,,,,,,,,,,,,,,,,,,LDT,right,0.6170408063121613,0,,,right,0,0.6170408063121613,,,,,,,,,,,,,,,,,,,,,,1074,2019_Mar_14_1406,mf_amp_cond2,3.0.4,59.99161117409876,
troubla,&&&&&&&,right,nonword,,,,,,,,0,115,115,116,,,,,,,,,,,,,,,,,,,,,LDT,left,0.7337416508926253,0,,,left,0,0.7337416508926253,,,,,,,,,,,,,,,,,,,,,,1074,2019_Mar_14_1406,mf_amp_cond2,3.0.4,59.99161117409876,
latter,&&&&&&,left,neutral,,,,,,,,0,116,116,149,,,,,,,,,,,,,,,,,,,,,LDT,right,0.41700571969590783,0,,,right,0,0.41700571969590783,,,,,,,,,,,,,,,,,,,,,,1074,2019_Mar_14_1406,mf_amp_cond2,3.0.4,59.99161117409876,
values,&&&&&&,left,sanctity.virtue,,,,,,,,0,117,117,185,,,,,,,,,,,,,,,,,,,,,LDT,right,0.583711407127339,0,,,right,0,0.583711407127339,,,,,,,,,,,,,,,,,,,,,,1074,2019_Mar_14_1406,mf_amp_cond2,3.0.4,59.99161117409876,
shoirmaster,&&&&&&&&&&&,None,nonword,,,,,,,,0,118,118,54,,,,,,,,,,,,,,,,,,,,,LDT,left,0.78376188823745,0,,,left,0,0.78376188823745,,,,,,,,,,,,,,,,,,,,,,1074,2019_Mar_14_1406,mf_amp_cond2,3.0.4,59.99161117409876,
with,&&&&,left,neutral,,,,,,,,0,119,119,133,,,,,,,,,,,,,,,,,,,,,LDT,right,0.43368116336205276,0,,,right,0,0.43368116336205276,,,,,,,,,,,,,,,,,,,,,,1074,2019_Mar_14_1406,mf_amp_cond2,3.0.4,59.99161117409876,
civilians,&&&&&&&&&,left,care.vice,,,,,,,,0,120,120,194,,,,,,,,,,,,,,,,,,,,,LDT,right,0.4670205048239495,0,,,right,0,0.4670205048239495,,,,,,,,,,,,,,,,,,,,,,1074,2019_Mar_14_1406,mf_amp_cond2,3.0.4,59.99161117409876,
ning,&&&&,right,nonword,,,,,,,,0,121,121,68,,,,,,,,,,,,,,,,,,,,,LDT,left,0.48368760980611114,0,,,left,0,0.48368760980611114,,,,,,,,,,,,,,,,,,,,,,1074,2019_Mar_14_1406,mf_amp_cond2,3.0.4,59.99161117409876,
elsewhere,&&&&&&&&&,left,neutral,,,,,,,,0,122,122,95,,,,,,,,,,,,,,,,,,,,,LDT,right,0.38366381248488324,0,,,right,0,0.38366381248488324,,,,,,,,,,,,,,,,,,,,,,1074,2019_Mar_14_1406,mf_amp_cond2,3.0.4,59.99161117409876,
fontacts,&&&&&&&&,right,nonword,,,,,,,,0,123,123,154,,,,,,,,,,,,,,,,,,,,,LDT,left,0.3670159506195887,0,,,left,0,0.3670159506195887,,,,,,,,,,,,,,,,,,,,,,1074,2019_Mar_14_1406,mf_amp_cond2,3.0.4,59.99161117409876,
army,&&&&,left,loyalty.vice,,,,,,,,0,124,124,114,,,,,,,,,,,,,,,,,,,,,LDT,right,0.28362975216805353,0,,,right,0,0.28362975216805353,,,,,,,,,,,,,,,,,,,,,,1074,2019_Mar_14_1406,mf_amp_cond2,3.0.4,59.99161117409876,
hereby,&&&&&&,left,neutral,,,,,,,,0,125,125,17,,,,,,,,,,,,,,,,,,,,,LDT,right,0.4003350868090365,0,,,right,0,0.4003350868090365,,,,,,,,,,,,,,,,,,,,,,1074,2019_Mar_14_1406,mf_amp_cond2,3.0.4,59.99161117409876,
sonvoy,&&&&&&,None,nonword,,,,,,,,0,126,126,158,,,,,,,,,,,,,,,,,,,,,LDT,left,0.38364136218183376,0,,,left,0,0.38364136218183376,,,,,,,,,,,,,,,,,,,,,,1074,2019_Mar_14_1406,mf_amp_cond2,3.0.4,59.99161117409876,
tomedians,&&&&&&&&&,right,nonword,,,,,,,,0,127,127,125,,,,,,,,,,,,,,,,,,,,,LDT,right,0.28364995744072985,1,,,right,1,0.28364995744072985,,,,,,,,,,,,,,,,,,,,,,1074,2019_Mar_14_1406,mf_amp_cond2,3.0.4,59.99161117409876,
hence,&&&&&,left,neutral,,,,,,,,0,128,128,92,,,,,,,,,,,,,,,,,,,,,LDT,right,0.3669989525330948,0,,,right,0,0.3669989525330948,,,,,,,,,,,,,,,,,,,,,,1074,2019_Mar_14_1406,mf_amp_cond2,3.0.4,59.99161117409876,
mostly,&&&&&&,left,neutral,,,,,,,,0,129,129,174,,,,,,,,,,,,,,,,,,,,,LDT,left,0.31698352596777113,1,,,left,1,0.31698352596777113,,,,,,,,,,,,,,,,,,,,,,1074,2019_Mar_14_1406,mf_amp_cond2,3.0.4,59.99161117409876,
grovelire,&&&&&&&&&,right,nonword,,,,,,,,0,130,130,18,,,,,,,,,,,,,,,,,,,,,LDT,right,0.2836496367219752,1,,,right,1,0.2836496367219752,,,,,,,,,,,,,,,,,,,,,,1074,2019_Mar_14_1406,mf_amp_cond2,3.0.4,59.99161117409876,
help,&&&&,left,care.virtue,,,,,,,,0,131,131,148,,,,,,,,,,,,,,,,,,,,,LDT,right,2.6842307147087467,0,,,right,0,2.6842307147087467,,,,,,,,,,,,,,,,,,,,,,1074,2019_Mar_14_1406,mf_amp_cond2,3.0.4,59.99161117409876,
edancipation,&&&&&&&&&&&&,None,nonword,,,,,,,,0,132,132,40,,,,,,,,,,,,,,,,,,,,,LDT,left,0.41703137718491234,0,,,left,0,0.41703137718491234,,,,,,,,,,,,,,,,,,,,,,1074,2019_Mar_14_1406,mf_amp_cond2,3.0.4,59.99161117409876,
credit,&&&&&&,left,fairness.virtue,,,,,,,,0,133,133,53,,,,,,,,,,,,,,,,,,,,,LDT,right,0.3336506309497054,0,,,right,0,0.3336506309497054,,,,,,,,,,,,,,,,,,,,,,1074,2019_Mar_14_1406,mf_amp_cond2,3.0.4,59.99161117409876,
supervuned,&&&&&&&&&&,right,nonword,,,,,,,,0,134,134,85,,,,,,,,,,,,,,,,,,,,,LDT,right,4.084569329422266,1,,,right,1,4.084569329422266,,,,,,,,,,,,,,,,,,,,,,1074,2019_Mar_14_1406,mf_amp_cond2,3.0.4,59.99161117409876,
ittutable,&&&&&&&&&,right,nonword,,,,,,,,0,135,135,62,,,,,,,,,,,,,,,,,,,,,LDT,left,1.0504897693970179,0,,,left,0,1.0504897693970179,,,,,,,,,,,,,,,,,,,,,,1074,2019_Mar_14_1406,mf_amp_cond2,3.0.4,59.99161117409876,
rejected,&&&&&&&&,left,authority.vice,,,,,,,,0,136,136,19,,,,,,,,,,,,,,,,,,,,,LDT,right,0.3836718304501119,0,,,right,0,0.3836718304501119,,,,,,,,,,,,,,,,,,,,,,1074,2019_Mar_14_1406,mf_amp_cond2,3.0.4,59.99161117409876,
forced,&&&&&&,left,fairness.vice,,,,,,,,0,137,137,12,,,,,,,,,,,,,,,,,,,,,LDT,left,0.6504048431077081,1,,,left,1,0.6504048431077081,,,,,,,,,,,,,,,,,,,,,,1074,2019_Mar_14_1406,mf_amp_cond2,3.0.4,59.99161117409876,
progress,&&&&&&&&,left,authority.virtue,,,,,,,,0,138,138,180,,,,,,,,,,,,,,,,,,,,,LDT,right,0.26697611736744875,0,,,right,0,0.26697611736744875,,,,,,,,,,,,,,,,,,,,,,1074,2019_Mar_14_1406,mf_amp_cond2,3.0.4,59.99161117409876,
Cunday,&&&&&&,None,nonword,,,,,,,,0,139,139,124,,,,,,,,,,,,,,,,,,,,,LDT,right,1.2338731455249672,0,,,right,0,1.2338731455249672,,,,,,,,,,,,,,,,,,,,,,1074,2019_Mar_14_1406,mf_amp_cond2,3.0.4,59.99161117409876,
give,&&&&,left,neutral,,,,,,,,0,140,140,199,,,,,,,,,,,,,,,,,,,,,LDT,left,0.36698227516512816,1,,,left,1,0.36698227516512816,,,,,,,,,,,,,,,,,,,,,,1074,2019_Mar_14_1406,mf_amp_cond2,3.0.4,59.99161117409876,
Boeinf,&&&&&&,right,nonword,,,,,,,,0,141,141,131,,,,,,,,,,,,,,,,,,,,,LDT,right,0.26698445605143206,1,,,right,1,0.26698445605143206,,,,,,,,,,,,,,,,,,,,,,1074,2019_Mar_14_1406,mf_amp_cond2,3.0.4,59.99161117409876,
tislay,&&&&&&,right,nonword,,,,,,,,0,142,142,61,,,,,,,,,,,,,,,,,,,,,LDT,right,0.38366701967106565,1,,,right,1,0.38366701967106565,,,,,,,,,,,,,,,,,,,,,,1074,2019_Mar_14_1406,mf_amp_cond2,3.0.4,59.99161117409876,
commitment,&&&&&&&&&&,left,sanctity.virtue,,,,,,,,0,143,143,75,,,,,,,,,,,,,,,,,,,,,LDT,right,0.7504196603076707,0,,,right,0,0.7504196603076707,,,,,,,,,,,,,,,,,,,,,,1074,2019_Mar_14_1406,mf_amp_cond2,3.0.4,59.99161117409876,
whereafter,&&&&&&&&&&,left,neutral,,,,,,,,0,144,144,57,,,,,,,,,,,,,,,,,,,,,LDT,left,0.5837123692831483,1,,,left,1,0.5837123692831483,,,,,,,,,,,,,,,,,,,,,,1074,2019_Mar_14_1406,mf_amp_cond2,3.0.4,59.99161117409876,
halaise,&&&&&&&,None,nonword,,,,,,,,0,145,145,104,,,,,,,,,,,,,,,,,,,,,LDT,left,0.6337200986017706,0,,,left,0,0.6337200986017706,,,,,,,,,,,,,,,,,,,,,,1074,2019_Mar_14_1406,mf_amp_cond2,3.0.4,59.99161117409876,
erks,&&&&,right,nonword,,,,,,,,0,146,146,188,,,,,,,,,,,,,,,,,,,,,LDT,right,0.18361204850043578,1,,,right,1,0.18361204850043578,,,,,,,,,,,,,,,,,,,,,,1074,2019_Mar_14_1406,mf_amp_cond2,3.0.4,59.99161117409876,
tracious,&&&&&&&&,right,nonword,,,,,,,,0,147,147,14,,,,,,,,,,,,,,,,,,,,,LDT,right,0.45034121253434023,1,,,right,1,0.45034121253434023,,,,,,,,,,,,,,,,,,,,,,1074,2019_Mar_14_1406,mf_amp_cond2,3.0.4,59.99161117409876,
fifteen,&&&&&&&,left,neutral,,,,,,,,0,148,148,112,,,,,,,,,,,,,,,,,,,,,LDT,left,0.3503212638365767,1,,,left,1,0.3503212638365767,,,,,,,,,,,,,,,,,,,,,,1074,2019_Mar_14_1406,mf_amp_cond2,3.0.4,59.99161117409876,
framatic,&&&&&&&&,right,nonword,,,,,,,,0,149,149,35,,,,,,,,,,,,,,,,,,,,,LDT,right,0.33364421657734056,1,,,right,1,0.33364421657734056,,,,,,,,,,,,,,,,,,,,,,1074,2019_Mar_14_1406,mf_amp_cond2,3.0.4,59.99161117409876,
loyalty,&&&&&&&,left,loyalty.virtue,,,,,,,,0,150,150,51,,,,,,,,,,,,,,,,,,,,,LDT,left,0.5503778386002978,1,,,left,1,0.5503778386002978,,,,,,,,,,,,,,,,,,,,,,1074,2019_Mar_14_1406,mf_amp_cond2,3.0.4,59.99161117409876,
abointment,&&&&&&&&&&,right,nonword,,,,,,,,0,151,151,102,,,,,,,,,,,,,,,,,,,,,LDT,right,1.7006572807295015,1,,,right,1,1.7006572807295015,,,,,,,,,,,,,,,,,,,,,,1074,2019_Mar_14_1406,mf_amp_cond2,3.0.4,59.99161117409876,
frocessing,&&&&&&&&&&,right,nonword,,,,,,,,0,152,152,94,,,,,,,,,,,,,,,,,,,,,LDT,left,0.7837590017697948,0,,,left,0,0.7837590017697948,,,,,,,,,,,,,,,,,,,,,,1074,2019_Mar_14_1406,mf_amp_cond2,3.0.4,59.99161117409876,
sidearbs,&&&&&&&&,right,nonword,,,,,,,,0,153,153,186,,,,,,,,,,,,,,,,,,,,,LDT,right,0.40032771028086245,1,,,right,1,0.40032771028086245,,,,,,,,,,,,,,,,,,,,,,1074,2019_Mar_14_1406,mf_amp_cond2,3.0.4,59.99161117409876,
vicissifude,&&&&&&&&&&&,right,nonword,,,,,,,,0,154,154,177,,,,,,,,,,,,,,,,,,,,,LDT,right,0.867116976983425,1,,,right,1,0.867116976983425,,,,,,,,,,,,,,,,,,,,,,1074,2019_Mar_14_1406,mf_amp_cond2,3.0.4,59.99161117409876,
tove,&&&&,right,nonword,,,,,,,,0,155,155,176,,,,,,,,,,,,,,,,,,,,,LDT,left,0.2669748344931122,0,,,left,0,0.2669748344931122,,,,,,,,,,,,,,,,,,,,,,1074,2019_Mar_14_1406,mf_amp_cond2,3.0.4,59.99161117409876,
antral,&&&&&&,right,nonword,,,,,,,,0,156,156,164,,,,,,,,,,,,,,,,,,,,,LDT,right,0.23362619219119551,1,,,right,1,0.23362619219119551,,,,,,,,,,,,,,,,,,,,,,1074,2019_Mar_14_1406,mf_amp_cond2,3.0.4,59.99161117409876,
harassment,&&&&&&&&&&,left,sanctity.vice,,,,,,,,0,157,157,30,,,,,,,,,,,,,,,,,,,,,LDT,right,0.03359174701199663,0,,,right,0,0.03359174701199663,,,,,,,,,,,,,,,,,,,,,,1074,2019_Mar_14_1406,mf_amp_cond2,3.0.4,59.99161117409876,
yane,&&&&,right,nonword,,,,,,,,0,158,158,64,,,,,,,,,,,,,,,,,,,,,LDT,right,0.08360589070298374,1,,,right,1,0.08360589070298374,,,,,,,,,,,,,,,,,,,,,,1074,2019_Mar_14_1406,mf_amp_cond2,3.0.4,59.99161117409876,
lorthwhile,&&&&&&&&&&,right,nonword,,,,,,,,0,159,159,173,,,,,,,,,,,,,,,,,,,,,LDT,left,0.7837394379341731,0,,,left,0,0.7837394379341731,,,,,,,,,,,,,,,,,,,,,,1074,2019_Mar_14_1406,mf_amp_cond2,3.0.4,59.99161117409876,
fear,&&&&,left,sanctity.vice,,,,,,,,0,160,160,45,,,,,,,,,,,,,,,,,,,,,LDT,right,0.683741939539459,0,,,right,0,0.683741939539459,,,,,,,,,,,,,,,,,,,,,,1074,2019_Mar_14_1406,mf_amp_cond2,3.0.4,59.99161117409876,
brudent,&&&&&&&,right,nonword,,,,,,,,0,161,161,118,,,,,,,,,,,,,,,,,,,,,LDT,right,0.7504235089311351,1,,,right,1,0.7504235089311351,,,,,,,,,,,,,,,,,,,,,,1074,2019_Mar_14_1406,mf_amp_cond2,3.0.4,59.99161117409876,
gaultless,&&&&&&&&&,right,nonword,,,,,,,,0,162,162,47,,,,,,,,,,,,,,,,,,,,,LDT,right,0.817114699881131,1,,,right,1,0.817114699881131,,,,,,,,,,,,,,,,,,,,,,1074,2019_Mar_14_1406,mf_amp_cond2,3.0.4,59.99161117409876,
hand,&&&&,left,sanctity.virtue,,,,,,,,0,163,163,181,,,,,,,,,,,,,,,,,,,,,LDT,left,0.40026677374385145,1,,,left,1,0.40026677374385145,,,,,,,,,,,,,,,,,,,,,,1074,2019_Mar_14_1406,mf_amp_cond2,3.0.4,59.99161117409876,
viscs,&&&&&,None,nonword,,,,,,,,0,164,164,84,,,,,,,,,,,,,,,,,,,,,LDT,right,0.5670539237037246,0,,,right,0,0.5670539237037246,,,,,,,,,,,,,,,,,,,,,,1074,2019_Mar_14_1406,mf_amp_cond2,3.0.4,59.99161117409876,
front,&&&&&,left,neutral,,,,,,,,0,165,165,52,,,,,,,,,,,,,,,,,,,,,LDT,right,0.5837107656898297,0,,,right,0,0.5837107656898297,,,,,,,,,,,,,,,,,,,,,,1074,2019_Mar_14_1406,mf_amp_cond2,3.0.4,59.99161117409876,
hescribe,&&&&&&&&,right,nonword,,,,,,,,0,166,166,70,,,,,,,,,,,,,,,,,,,,,LDT,right,0.717074866628991,1,,,right,1,0.717074866628991,,,,,,,,,,,,,,,,,,,,,,1074,2019_Mar_14_1406,mf_amp_cond2,3.0.4,59.99161117409876,
letish,&&&&&&,right,nonword,,,,,,,,0,167,167,8,,,,,,,,,,,,,,,,,,,,,LDT,right,0.6337258715368534,1,,,right,1,0.6337258715368534,,,,,,,,,,,,,,,,,,,,,,1074,2019_Mar_14_1406,mf_amp_cond2,3.0.4,59.99161117409876,
Loorish,&&&&&&&,right,nonword,,,,,,,,0,168,168,160,,,,,,,,,,,,,,,,,,,,,LDT,right,0.05024794756104711,1,,,right,1,0.05024794756104711,,,,,,,,,,,,,,,,,,,,,,1074,2019_Mar_14_1406,mf_amp_cond2,3.0.4,59.99161117409876,
neutralust,&&&&&&&&&&,right,nonword,,,,,,,,0,169,169,49,,,,,,,,,,,,,,,,,,,,,LDT,right,0.2502785441172364,1,,,right,1,0.2502785441172364,,,,,,,,,,,,,,,,,,,,,,1074,2019_Mar_14_1406,mf_amp_cond2,3.0.4,59.99161117409876,
although,&&&&&&&&,left,neutral,,,,,,,,0,170,170,37,,,,,,,,,,,,,,,,,,,,,LDT,right,0.650417351133683,0,,,right,0,0.650417351133683,,,,,,,,,,,,,,,,,,,,,,1074,2019_Mar_14_1406,mf_amp_cond2,3.0.4,59.99161117409876,
sharing,&&&&&&&,left,loyalty.virtue,,,,,,,,0,171,171,83,,,,,,,,,,,,,,,,,,,,,LDT,right,0.43362696191593386,0,,,right,0,0.43362696191593386,,,,,,,,,,,,,,,,,,,,,,1074,2019_Mar_14_1406,mf_amp_cond2,3.0.4,59.99161117409876,
besides,&&&&&&&,left,neutral,,,,,,,,0,172,172,66,,,,,,,,,,,,,,,,,,,,,LDT,right,0.4003334832159453,0,,,right,0,0.4003334832159453,,,,,,,,,,,,,,,,,,,,,,1074,2019_Mar_14_1406,mf_amp_cond2,3.0.4,59.99161117409876,
violations,&&&&&&&&&&,left,sanctity.vice,,,,,,,,0,173,173,7,,,,,,,,,,,,,,,,,,,,,LDT,left,0.3669947831911031,1,,,left,1,0.3669947831911031,,,,,,,,,,,,,,,,,,,,,,1074,2019_Mar_14_1406,mf_amp_cond2,3.0.4,59.99161117409876,
peaceful,&&&&&&&&,left,authority.virtue,,,,,,,,0,174,174,69,,,,,,,,,,,,,,,,,,,,,LDT,right,0.5837110864088118,0,,,right,0,0.5837110864088118,,,,,,,,,,,,,,,,,,,,,,1074,2019_Mar_14_1406,mf_amp_cond2,3.0.4,59.99161117409876,
fraud,&&&&&,left,fairness.vice,,,,,,,,0,175,175,101,,,,,,,,,,,,,,,,,,,,,LDT,right,0.6504228033500112,0,,,right,0,0.6504228033500112,,,,,,,,,,,,,,,,,,,,,,1074,2019_Mar_14_1406,mf_amp_cond2,3.0.4,59.99161117409876,
peace,&&&&&,left,care.virtue,,,,,,,,0,176,176,93,,,,,,,,,,,,,,,,,,,,,LDT,right,1.4672539879754822,0,,,right,0,1.4672539879754822,,,,,,,,,,,,,,,,,,,,,,1074,2019_Mar_14_1406,mf_amp_cond2,3.0.4,59.99161117409876,
both,&&&&,left,neutral,,,,,,,,0,177,177,77,,,,,,,,,,,,,,,,,,,,,LDT,left,0.7837615675186953,1,,,left,1,0.7837615675186953,,,,,,,,,,,,,,,,,,,,,,1074,2019_Mar_14_1406,mf_amp_cond2,3.0.4,59.99161117409876,
health,&&&&&&,left,care.virtue,,,,,,,,0,178,178,23,,,,,,,,,,,,,,,,,,,,,LDT,right,0.48369049627376626,0,,,right,0,0.48369049627376626,,,,,,,,,,,,,,,,,,,,,,1074,2019_Mar_14_1406,mf_amp_cond2,3.0.4,59.99161117409876,
itself,&&&&&&,left,neutral,,,,,,,,0,179,179,71,,,,,,,,,,,,,,,,,,,,,LDT,right,0.3836695854199661,0,,,right,0,0.3836695854199661,,,,,,,,,,,,,,,,,,,,,,1074,2019_Mar_14_1406,mf_amp_cond2,3.0.4,59.99161117409876,
esquisiteness,&&&&&&&&&&&&&,right,nonword,,,,,,,,0,180,180,33,,,,,,,,,,,,,,,,,,,,,LDT,right,1.283883119873508,1,,,right,1,1.283883119873508,,,,,,,,,,,,,,,,,,,,,,1074,2019_Mar_14_1406,mf_amp_cond2,3.0.4,59.99161117409876,
ecgagement,&&&&&&&&&&,None,nonword,,,,,,,,0,181,181,63,,,,,,,,,,,,,,,,,,,,,LDT,right,0.5502482682798018,0,,,right,0,0.5502482682798018,,,,,,,,,,,,,,,,,,,,,,1074,2019_Mar_14_1406,mf_amp_cond2,3.0.4,59.99161117409876,
chared,&&&&&&,right,nonword,,,,,,,,0,182,182,175,,,,,,,,,,,,,,,,,,,,,LDT,left,0.36699606606543966,0,,,left,0,0.36699606606543966,,,,,,,,,,,,,,,,,,,,,,1074,2019_Mar_14_1406,mf_amp_cond2,3.0.4,59.99161117409876,
three,&&&&&,left,neutral,,,,,,,,0,183,183,182,,,,,,,,,,,,,,,,,,,,,LDT,right,0.2169587664905066,0,,,right,0,0.2169587664905066,,,,,,,,,,,,,,,,,,,,,,1074,2019_Mar_14_1406,mf_amp_cond2,3.0.4,59.99161117409876,
dramens,&&&&&&&,right,nonword,,,,,,,,0,184,184,6,,,,,,,,,,,,,,,,,,,,,LDT,right,0.40017793468769014,1,,,right,1,0.40017793468769014,,,,,,,,,,,,,,,,,,,,,,1074,2019_Mar_14_1406,mf_amp_cond2,3.0.4,59.99161117409876,
unreflectuve,&&&&&&&&&&&&,right,nonword,,,,,,,,0,185,185,132,,,,,,,,,,,,,,,,,,,,,LDT,right,0.4170172655658462,1,,,right,1,0.4170172655658462,,,,,,,,,,,,,,,,,,,,,,1074,2019_Mar_14_1406,mf_amp_cond2,3.0.4,59.99161117409876,
even,&&&&,left,neutral,,,,,,,,0,186,186,10,,,,,,,,,,,,,,,,,,,,,LDT,right,0.45035083409288745,0,,,right,0,0.45035083409288745,,,,,,,,,,,,,,,,,,,,,,1074,2019_Mar_14_1406,mf_amp_cond2,3.0.4,59.99161117409876,
less,&&&&,left,neutral,,,,,,,,0,187,187,86,,,,,,,,,,,,,,,,,,,,,LDT,right,0.5669179390108638,0,,,right,0,0.5669179390108638,,,,,,,,,,,,,,,,,,,,,,1074,2019_Mar_14_1406,mf_amp_cond2,3.0.4,59.99161117409876,
godlaness,&&&&&&&&&,right,nonword,,,,,,,,0,188,188,152,,,,,,,,,,,,,,,,,,,,,LDT,left,0.41700539897715316,0,,,left,0,0.41700539897715316,,,,,,,,,,,,,,,,,,,,,,1074,2019_Mar_14_1406,mf_amp_cond2,3.0.4,59.99161117409876,
betrayal,&&&&&&&&,left,loyalty.vice,,,,,,,,0,189,189,128,,,,,,,,,,,,,,,,,,,,,LDT,right,0.23363260656356033,0,,,right,0,0.23363260656356033,,,,,,,,,,,,,,,,,,,,,,1074,2019_Mar_14_1406,mf_amp_cond2,3.0.4,59.99161117409876,
chreams,&&&&&&&,right,nonword,,,,,,,,0,190,190,123,,,,,,,,,,,,,,,,,,,,,LDT,right,0.38367888625975866,1,,,right,1,0.38367888625975866,,,,,,,,,,,,,,,,,,,,,,1074,2019_Mar_14_1406,mf_amp_cond2,3.0.4,59.99161117409876,
quarterbocks,&&&&&&&&&&&&,right,nonword,,,,,,,,0,191,191,91,,,,,,,,,,,,,,,,,,,,,LDT,right,1.4672786833091322,1,,,right,1,1.4672786833091322,,,,,,,,,,,,,,,,,,,,,,1074,2019_Mar_14_1406,mf_amp_cond2,3.0.4,59.99161117409876,
festate,&&&&&&&,right,nonword,,,,,,,,0,192,192,162,,,,,,,,,,,,,,,,,,,,,LDT,right,0.8004485570547786,1,,,right,1,0.8004485570547786,,,,,,,,,,,,,,,,,,,,,,1074,2019_Mar_14_1406,mf_amp_cond2,3.0.4,59.99161117409876,
sfumatoy,&&&&&&&&,None,nonword,,,,,,,,0,193,193,20,,,,,,,,,,,,,,,,,,,,,LDT,right,1.4672594401920378,0,,,right,0,1.4672594401920378,,,,,,,,,,,,,,,,,,,,,,1074,2019_Mar_14_1406,mf_amp_cond2,3.0.4,59.99161117409876,
faith,&&&&&,left,sanctity.virtue,,,,,,,,0,194,194,27,,,,,,,,,,,,,,,,,,,,,LDT,right,0.6837400152276132,0,,,right,0,0.6837400152276132,,,,,,,,,,,,,,,,,,,,,,1074,2019_Mar_14_1406,mf_amp_cond2,3.0.4,59.99161117409876,
also,&&&&,left,neutral,,,,,,,,0,195,195,161,,,,,,,,,,,,,,,,,,,,,LDT,right,0.5170202161771158,0,,,right,0,0.5170202161771158,,,,,,,,,,,,,,,,,,,,,,1074,2019_Mar_14_1406,mf_amp_cond2,3.0.4,59.99161117409876,
bruthfulness,&&&&&&&&&&&&,right,nonword,,,,,,,,0,196,196,78,,,,,,,,,,,,,,,,,,,,,LDT,left,0.917133365704558,0,,,left,0,0.917133365704558,,,,,,,,,,,,,,,,,,,,,,1074,2019_Mar_14_1406,mf_amp_cond2,3.0.4,59.99161117409876,
rivernoat,&&&&&&&&&,right,nonword,,,,,,,,0,197,197,48,,,,,,,,,,,,,,,,,,,,,LDT,right,0.30034656853536035,1,,,right,1,0.30034656853536035,,,,,,,,,,,,,,,,,,,,,,1074,2019_Mar_14_1406,mf_amp_cond2,3.0.4,59.99161117409876,
troops,&&&&&&,left,loyalty.vice,,,,,,,,0,198,198,50,,,,,,,,,,,,,,,,,,,,,LDT,left,0.30032764613702057,1,,,left,1,0.30032764613702057,,,,,,,,,,,,,,,,,,,,,,1074,2019_Mar_14_1406,mf_amp_cond2,3.0.4,59.99161117409876,
infet,&&&&&,right,nonword,,,,,,,,0,199,199,15,,,,,,,,,,,,,,,,,,,,,LDT,right,0.10024765891444076,1,,,right,1,0.10024765891444076,,,,,,,,,,,,,,,,,,,,,,1074,2019_Mar_14_1406,mf_amp_cond2,3.0.4,59.99161117409876,
,,,,,,,,,,,,,,,,,,,,,,,,,,,,,,,,,,,,,,,,,,,,4,15.122,,,,,,,,,,,,,,,,,,,,1074,2019_Mar_14_1406,mf_amp_cond2,3.0.4,59.99161117409876,
,,,,,,,,,,,,,,,,,,,,,,,,,,,,,,,,,,,,,,,,,,,,,,right,2.417514379419117,,,,,,,,,,,,,,,,,,1074,2019_Mar_14_1406,mf_amp_cond2,3.0.4,59.99161117409876,
car,&&&&&&&&,,,cemtuper,,,,,,,,,,,0,0,0,0,,,,,,,,,,,,,,,,,AMP_prac,right,8.919106747342312,,,,,,,,,,,right,8.919106747342312,,,,,,,,,,,,,,,,1074,2019_Mar_14_1406,mf_amp_cond2,3.0.4,59.99161117409876,
scarf,&&&&&&&&,,,bisebell,,,,,,,,,,,0,1,1,3,,,,,,,,,,,,,,,,,AMP_prac,left,2.784257077778875,,,,,,,,,,,left,2.784257077778875,,,,,,,,,,,,,,,,1074,2019_Mar_14_1406,mf_amp_cond2,3.0.4,59.99161117409876,
keyboard,&&&&,,,senk,,,,,,,,,,,0,2,2,2,,,,,,,,,,,,,,,,,AMP_prac,left,1.2672057518957445,,,,,,,,,,,left,1.2672057518957445,,,,,,,,,,,,,,,,1074,2019_Mar_14_1406,mf_amp_cond2,3.0.4,59.99161117409876,
banana,&&&&&&,,,kacket,,,,,,,,,,,0,3,3,1,,,,,,,,,,,,,,,,,AMP_prac,left,0.9337860383491261,,,,,,,,,,,left,0.9337860383491261,,,,,,,,,,,,,,,,1074,2019_Mar_14_1406,mf_amp_cond2,3.0.4,59.99161117409876,
,,,,,,,,,,,,,,,,,,,,,,,,,,,,,,,,,,,,,,,,,,,,,,,,,,right,1.2670620699564097,,,,,,,,,,,,,,1074,2019_Mar_14_1406,mf_amp_cond2,3.0.4,59.99161117409876,
black,&&&&&&&&&,right,loyalty.vice,gondensed,,,,,,,,,,,,,,,0,0,0,124,,,,,,,,,,,,,AMP,left,3.284377347259351,0,,,,,,,,,,,,,,left,0,3.284377347259351,,,,,,,,,,,1074,2019_Mar_14_1406,mf_amp_cond2,3.0.4,59.99161117409876,
crinking,&&&&&&&&&,None,nonword,baladroit,,,,,,,,,,,,,,,0,1,1,18,,,,,,,,,,,,,AMP,left,0.8671179391392343,0,,,,,,,,,,,,,,left,0,0.8671179391392343,,,,,,,,,,,1074,2019_Mar_14_1406,mf_amp_cond2,3.0.4,59.99161117409876,
presentkess,&&&&&&&&&&,None,nonword,totalestic,,,,,,,,,,,,,,,0,2,2,318,,,,,,,,,,,,,AMP,left,0.883775743281376,0,,,,,,,,,,,,,,left,0,0.883775743281376,,,,,,,,,,,1074,2019_Mar_14_1406,mf_amp_cond2,3.0.4,59.99161117409876,
gun,&&&&&&&&,right,authority.vice,sliptery,,,,,,,,,,,,,,,0,3,3,287,,,,,,,,,,,,,AMP,left,1.567304725660506,0,,,,,,,,,,,,,,left,0,1.567304725660506,,,,,,,,,,,1074,2019_Mar_14_1406,mf_amp_cond2,3.0.4,59.99161117409876,
refused,&&&&&&&&,right,authority.vice,pullness,,,,,,,,,,,,,,,0,4,4,164,,,,,,,,,,,,,AMP,left,1.2838751019085066,0,,,,,,,,,,,,,,left,0,1.2838751019085066,,,,,,,,,,,1074,2019_Mar_14_1406,mf_amp_cond2,3.0.4,59.99161117409876,
trust,&&&&&&&&,left,authority.virtue,epigrach,,,,,,,,,,,,,,,0,5,5,248,,,,,,,,,,,,,AMP,right,0.36699638678396695,0,,,,,,,,,,,,,,right,0,0.36699638678396695,,,,,,,,,,,1074,2019_Mar_14_1406,mf_amp_cond2,3.0.4,59.99161117409876,
sexual,&&&&&,right,sanctity.vice,touls,,,,,,,,,,,,,,,0,6,6,130,,,,,,,,,,,,,AMP,left,2.4008456708438644,0,,,,,,,,,,,,,,left,0,2.4008456708438644,,,,,,,,,,,1074,2019_Mar_14_1406,mf_amp_cond2,3.0.4,59.99161117409876,
riot,&&&&&&&&&,right,authority.vice,gondensed,,,,,,,,,,,,,,,0,7,7,176,,,,,,,,,,,,,AMP,right,1.2005267482531963,1,,,,,,,,,,,,,,right,1,1.2005267482531963,,,,,,,,,,,1074,2019_Mar_14_1406,mf_amp_cond2,3.0.4,59.99161117409876,
allears,&&&&&&,None,nonword,pumber,,,,,,,,,,,,,,,0,8,8,84,,,,,,,,,,,,,AMP,left,0.9171189333669645,0,,,,,,,,,,,,,,left,0,0.9171189333669645,,,,,,,,,,,1074,2019_Mar_14_1406,mf_amp_cond2,3.0.4,59.99161117409876,
killed,&&&&&&&,right,care.vice,chadows,,,,,,,,,,,,,,,0,9,9,193,,,,,,,,,,,,,AMP,left,1.4172712747090372,0,,,,,,,,,,,,,,left,0,1.4172712747090372,,,,,,,,,,,1074,2019_Mar_14_1406,mf_amp_cond2,3.0.4,59.99161117409876,
died,&&&&&&,right,care.vice,fostet,,,,,,,,,,,,,,,0,10,10,208,,,,,,,,,,,,,AMP,left,0.8337689761185629,0,,,,,,,,,,,,,,left,0,0.8337689761185629,,,,,,,,,,,1074,2019_Mar_14_1406,mf_amp_cond2,3.0.4,59.99161117409876,
promised,&&&&&&&,left,loyalty.virtue,menizen,,,,,,,,,,,,,,,0,11,11,298,,,,,,,,,,,,,AMP,left,0.550379442193389,1,,,,,,,,,,,,,,left,1,0.550379442193389,,,,,,,,,,,1074,2019_Mar_14_1406,mf_amp_cond2,3.0.4,59.99161117409876,
corruption,&&&&&&,right,sanctity.vice,fegard,,,,,,,,,,,,,,,0,12,12,196,,,,,,,,,,,,,AMP,left,0.7170620378847161,0,,,,,,,,,,,,,,left,0,0.7170620378847161,,,,,,,,,,,1074,2019_Mar_14_1406,mf_amp_cond2,3.0.4,59.99161117409876,
died,&&&&&&,right,care.vice,gikely,,,,,,,,,,,,,,,0,13,13,312,,,,,,,,,,,,,AMP,left,2.667555591761129,0,,,,,,,,,,,,,,left,0,2.667555591761129,,,,,,,,,,,1074,2019_Mar_14_1406,mf_amp_cond2,3.0.4,59.99161117409876,
accused,&&&&&&,right,fairness.vice,forepo,,,,,,,,,,,,,,,0,14,14,37,,,,,,,,,,,,,AMP,left,3.7178147644738146,0,,,,,,,,,,,,,,left,0,3.7178147644738146,,,,,,,,,,,1074,2019_Mar_14_1406,mf_amp_cond2,3.0.4,59.99161117409876,
compassion,&&&&&&&&,left,care.virtue,suggists,,,,,,,,,,,,,,,0,15,15,111,,,,,,,,,,,,,AMP,left,1.0338242680079475,1,,,,,,,,,,,,,,left,1,1.0338242680079475,,,,,,,,,,,1074,2019_Mar_14_1406,mf_amp_cond2,3.0.4,59.99161117409876,
rebels,&&&&&&&&&&&&,right,authority.vice,gusinesslike,,,,,,,,,,,,,,,0,16,16,1,,,,,,,,,,,,,AMP,left,0.9671231347806497,0,,,,,,,,,,,,,,left,0,0.9671231347806497,,,,,,,,,,,1074,2019_Mar_14_1406,mf_amp_cond2,3.0.4,59.99161117409876,
agreement,&&&&&,left,fairness.virtue,leact,,,,,,,,,,,,,,,0,17,17,52,,,,,,,,,,,,,AMP,left,0.9671484715513543,1,,,,,,,,,,,,,,left,1,0.9671484715513543,,,,,,,,,,,1074,2019_Mar_14_1406,mf_amp_cond2,3.0.4,59.99161117409876,
presentkess,&&&&&&&,None,nonword,scalbel,,,,,,,,,,,,,,,0,18,18,40,,,,,,,,,,,,,AMP,left,0.7170751873477457,0,,,,,,,,,,,,,,left,0,0.7170751873477457,,,,,,,,,,,1074,2019_Mar_14_1406,mf_amp_cond2,3.0.4,59.99161117409876,
corruption,&&&&&&&&&&&,right,sanctity.vice,sowntrodden,,,,,,,,,,,,,,,0,19,19,289,,,,,,,,,,,,,AMP,left,0.4336827669549166,0,,,,,,,,,,,,,,left,0,0.4336827669549166,,,,,,,,,,,1074,2019_Mar_14_1406,mf_amp_cond2,3.0.4,59.99161117409876,
died,&&&&,right,care.vice,alar,,,,,,,,,,,,,,,0,20,20,55,,,,,,,,,,,,,AMP,left,0.5336635879818914,0,,,,,,,,,,,,,,left,0,0.5336635879818914,,,,,,,,,,,1074,2019_Mar_14_1406,mf_amp_cond2,3.0.4,59.99161117409876,
gillipede,&&&&&&&&,None,nonword,bluently,,,,,,,,,,,,,,,0,21,21,170,,,,,,,,,,,,,AMP,left,0.3836939600346341,0,,,,,,,,,,,,,,left,0,0.3836939600346341,,,,,,,,,,,1074,2019_Mar_14_1406,mf_amp_cond2,3.0.4,59.99161117409876,
ban,&&&&&&&&,right,loyalty.vice,suggists,,,,,,,,,,,,,,,0,22,22,183,,,,,,,,,,,,,AMP,left,0.5003636949093107,0,,,,,,,,,,,,,,left,0,0.5003636949093107,,,,,,,,,,,1074,2019_Mar_14_1406,mf_amp_cond2,3.0.4,59.99161117409876,
safety,&&&&&&&&,left,care.virtue,thadowed,,,,,,,,,,,,,,,0,23,23,49,,,,,,,,,,,,,AMP,left,0.4169932116697055,1,,,,,,,,,,,,,,left,1,0.4169932116697055,,,,,,,,,,,1074,2019_Mar_14_1406,mf_amp_cond2,3.0.4,59.99161117409876,
ability,&&&&&,left,authority.virtue,hasks,,,,,,,,,,,,,,,0,24,24,58,,,,,,,,,,,,,AMP,left,0.45034762690670505,1,,,,,,,,,,,,,,left,1,0.45034762690670505,,,,,,,,,,,1074,2019_Mar_14_1406,mf_amp_cond2,3.0.4,59.99161117409876,
terrorist,&&&&&&&&&&&,right,loyalty.vice,neneficence,,,,,,,,,,,,,,,0,25,25,199,,,,,,,,,,,,,AMP,left,0.46701152470268426,0,,,,,,,,,,,,,,left,0,0.46701152470268426,,,,,,,,,,,1074,2019_Mar_14_1406,mf_amp_cond2,3.0.4,59.99161117409876,
restore,&&&&&&&&&&,left,care.virtue,totalestic,,,,,,,,,,,,,,,0,26,26,214,,,,,,,,,,,,,AMP,left,0.4003164851294514,1,,,,,,,,,,,,,,left,1,0.4003164851294514,,,,,,,,,,,1074,2019_Mar_14_1406,mf_amp_cond2,3.0.4,59.99161117409876,
ban,&&&&&,right,loyalty.vice,dumid,,,,,,,,,,,,,,,0,27,27,92,,,,,,,,,,,,,AMP,left,0.13364537116444808,0,,,,,,,,,,,,,,left,0,0.13364537116444808,,,,,,,,,,,1074,2019_Mar_14_1406,mf_amp_cond2,3.0.4,59.99161117409876,
crinking,&&&&&&&&,None,nonword,nuckheap,,,,,,,,,,,,,,,0,28,28,245,,,,,,,,,,,,,AMP,left,0.3836715097315846,0,,,,,,,,,,,,,,left,0,0.3836715097315846,,,,,,,,,,,1074,2019_Mar_14_1406,mf_amp_cond2,3.0.4,59.99161117409876,
death,&&&&&&&,right,care.vice,scalbel,,,,,,,,,,,,,,,0,29,29,98,,,,,,,,,,,,,AMP,left,0.16693981202047325,0,,,,,,,,,,,,,,left,0,0.16693981202047325,,,,,,,,,,,1074,2019_Mar_14_1406,mf_amp_cond2,3.0.4,59.99161117409876,
prison,&&&&&&&&&,right,fairness.vice,faspberry,,,,,,,,,,,,,,,0,30,30,160,,,,,,,,,,,,,AMP,left,0.33364902735661417,0,,,,,,,,,,,,,,left,0,0.33364902735661417,,,,,,,,,,,1074,2019_Mar_14_1406,mf_amp_cond2,3.0.4,59.99161117409876,
police,&&&&&&&&&&,right,authority.vice,reelectiob,,,,,,,,,,,,,,,0,31,31,140,,,,,,,,,,,,,AMP,left,0.36699606606543966,0,,,,,,,,,,,,,,left,0,0.36699606606543966,,,,,,,,,,,1074,2019_Mar_14_1406,mf_amp_cond2,3.0.4,59.99161117409876,
encourage,&&&&&&&&,left,authority.virtue,perified,,,,,,,,,,,,,,,0,32,32,62,,,,,,,,,,,,,AMP,left,0.36698580306983786,1,,,,,,,,,,,,,,left,1,0.36698580306983786,,,,,,,,,,,1074,2019_Mar_14_1406,mf_amp_cond2,3.0.4,59.99161117409876,
useful,&&&&&&,left,authority.virtue,fostet,,,,,,,,,,,,,,,0,33,33,277,,,,,,,,,,,,,AMP,left,0.40033284177866335,1,,,,,,,,,,,,,,left,1,0.40033284177866335,,,,,,,,,,,1074,2019_Mar_14_1406,mf_amp_cond2,3.0.4,59.99161117409876,
powerful,&&&&&&&&,left,authority.virtue,drumbled,,,,,,,,,,,,,,,0,34,34,173,,,,,,,,,,,,,AMP,right,0.48355322870634154,0,,,,,,,,,,,,,,right,0,0.48355322870634154,,,,,,,,,,,1074,2019_Mar_14_1406,mf_amp_cond2,3.0.4,59.99161117409876,
pafer,&&&&&&,None,nonword,bycled,,,,,,,,,,,,,,,0,35,35,270,,,,,,,,,,,,,AMP,left,0.550367575604696,0,,,,,,,,,,,,,,left,0,0.550367575604696,,,,,,,,,,,1074,2019_Mar_14_1406,mf_amp_cond2,3.0.4,59.99161117409876,
abuse,&&&&&,right,sanctity.vice,hasks,,,,,,,,,,,,,,,0,36,36,249,,,,,,,,,,,,,AMP,right,0.4169922495141236,1,,,,,,,,,,,,,,right,1,0.4169922495141236,,,,,,,,,,,1074,2019_Mar_14_1406,mf_amp_cond2,3.0.4,59.99161117409876,
gationwide,&&&,None,nonword,asn,,,,,,,,,,,,,,,0,37,37,43,,,,,,,,,,,,,AMP,left,0.2669985676707256,0,,,,,,,,,,,,,,left,0,0.2669985676707256,,,,,,,,,,,1074,2019_Mar_14_1406,mf_amp_cond2,3.0.4,59.99161117409876,
brotesque,&&&&&&&&,None,nonword,drumbled,,,,,,,,,,,,,,,0,38,38,95,,,,,,,,,,,,,AMP,left,0.31697999806283406,0,,,,,,,,,,,,,,left,0,0.31697999806283406,,,,,,,,,,,1074,2019_Mar_14_1406,mf_amp_cond2,3.0.4,59.99161117409876,
greaks,&&&&&,None,nonword,saned,,,,,,,,,,,,,,,0,39,39,135,,,,,,,,,,,,,AMP,left,0.3336583281966341,0,,,,,,,,,,,,,,left,0,0.3336583281966341,,,,,,,,,,,1074,2019_Mar_14_1406,mf_amp_cond2,3.0.4,59.99161117409876,
pleasant,&&&&,None,control,alar,,,,,,,,,,,,,,,0,40,40,150,,,,,,,,,,,,,AMP,left,0.3336368400491665,0,,,,,,,,,,,,,,left,0,0.3336368400491665,,,,,,,,,,,1074,2019_Mar_14_1406,mf_amp_cond2,3.0.4,59.99161117409876,
unpleasant,&&&&&&&&&,None,control,seachwear,,,,,,,,,,,,,,,0,41,41,136,,,,,,,,,,,,,AMP,left,0.2836538060641942,0,,,,,,,,,,,,,,left,0,0.2836538060641942,,,,,,,,,,,1074,2019_Mar_14_1406,mf_amp_cond2,3.0.4,59.99161117409876,
scandal,&&&&&&&&,right,sanctity.vice,pullness,,,,,,,,,,,,,,,0,42,42,128,,,,,,,,,,,,,AMP,left,0.15022524068331222,0,,,,,,,,,,,,,,left,0,0.15022524068331222,,,,,,,,,,,1074,2019_Mar_14_1406,mf_amp_cond2,3.0.4,59.99161117409876,
voter,&&&&&,right,fairness.vice,pulge,,,,,,,,,,,,,,,0,43,43,224,,,,,,,,,,,,,AMP,left,0.4170201520335013,0,,,,,,,,,,,,,,left,0,0.4170201520335013,,,,,,,,,,,1074,2019_Mar_14_1406,mf_amp_cond2,3.0.4,59.99161117409876,
prison,&&&&&&&&&&&&,right,fairness.vice,nonobservalt,,,,,,,,,,,,,,,0,44,44,263,,,,,,,,,,,,,AMP,right,0.16693115261773528,1,,,,,,,,,,,,,,right,1,0.16693115261773528,,,,,,,,,,,1074,2019_Mar_14_1406,mf_amp_cond2,3.0.4,59.99161117409876,
accused,&&&,right,fairness.vice,asn,,,,,,,,,,,,,,,0,45,45,297,,,,,,,,,,,,,AMP,left,0.08357991249499719,0,,,,,,,,,,,,,,left,0,0.08357991249499719,,,,,,,,,,,1074,2019_Mar_14_1406,mf_amp_cond2,3.0.4,59.99161117409876,
rebels,&&&&&&&,right,authority.vice,scalbel,,,,,,,,,,,,,,,0,46,46,307,,,,,,,,,,,,,AMP,left,0.7170899404040938,0,,,,,,,,,,,,,,left,0,0.7170899404040938,,,,,,,,,,,1074,2019_Mar_14_1406,mf_amp_cond2,3.0.4,59.99161117409876,
good,&&&&&&&&&,left,care.virtue,unscothed,,,,,,,,,,,,,,,0,47,47,89,,,,,,,,,,,,,AMP,right,0.35029271987991706,0,,,,,,,,,,,,,,right,0,0.35029271987991706,,,,,,,,,,,1074,2019_Mar_14_1406,mf_amp_cond2,3.0.4,59.99161117409876,
strength,&&&,left,sanctity.virtue,mih,,,,,,,,,,,,,,,0,48,48,229,,,,,,,,,,,,,AMP,left,0.2836509195965391,1,,,,,,,,,,,,,,left,1,0.2836509195965391,,,,,,,,,,,1074,2019_Mar_14_1406,mf_amp_cond2,3.0.4,59.99161117409876,
care,&&&&&&&&&,left,care.virtue,metibolic,,,,,,,,,,,,,,,0,49,49,314,,,,,,,,,,,,,AMP,left,0.23362619219119551,1,,,,,,,,,,,,,,left,1,0.23362619219119551,,,,,,,,,,,1074,2019_Mar_14_1406,mf_amp_cond2,3.0.4,59.99161117409876,
failure,&&&&&&&&&&&&,right,loyalty.vice,nonobservalt,,,,,,,,,,,,,,,0,50,50,8,,,,,,,,,,,,,AMP,left,0.43367474898968794,0,,,,,,,,,,,,,,left,0,0.43367474898968794,,,,,,,,,,,1074,2019_Mar_14_1406,mf_amp_cond2,3.0.4,59.99161117409876,
crinking,&&&&&&&&&&&,None,nonword,egpeditious,,,,,,,,,,,,,,,0,51,51,144,,,,,,,,,,,,,AMP,left,0.4003254652504893,0,,,,,,,,,,,,,,left,0,0.4003254652504893,,,,,,,,,,,1074,2019_Mar_14_1406,mf_amp_cond2,3.0.4,59.99161117409876,
free,&&&&&&&,left,fairness.virtue,lursuer,,,,,,,,,,,,,,,0,52,52,122,,,,,,,,,,,,,AMP,left,0.016902512445540196,1,,,,,,,,,,,,,,left,1,0.016902512445540196,,,,,,,,,,,1074,2019_Mar_14_1406,mf_amp_cond2,3.0.4,59.99161117409876,
safety,&&&&&&&&&,left,care.virtue,Lacedonia,,,,,,,,,,,,,,,0,53,53,179,,,,,,,,,,,,,AMP,left,0.4168719800334202,1,,,,,,,,,,,,,,left,1,0.4168719800334202,,,,,,,,,,,1074,2019_Mar_14_1406,mf_amp_cond2,3.0.4,59.99161117409876,
free,&&&&&,left,fairness.virtue,leact,,,,,,,,,,,,,,,0,54,54,186,,,,,,,,,,,,,AMP,left,0.28364354306836503,1,,,,,,,,,,,,,,left,1,0.28364354306836503,,,,,,,,,,,1074,2019_Mar_14_1406,mf_amp_cond2,3.0.4,59.99161117409876,
useful,&&&&&&&&&&,left,authority.virtue,simplustic,,,,,,,,,,,,,,,0,55,55,35,,,,,,,,,,,,,AMP,left,0.06690799673378933,1,,,,,,,,,,,,,,left,1,0.06690799673378933,,,,,,,,,,,1074,2019_Mar_14_1406,mf_amp_cond2,3.0.4,59.99161117409876,
party,&&&&&,left,loyalty.virtue,mecan,,,,,,,,,,,,,,,0,56,56,32,,,,,,,,,,,,,AMP,left,0.03356256161805504,1,,,,,,,,,,,,,,left,1,0.03356256161805504,,,,,,,,,,,1074,2019_Mar_14_1406,mf_amp_cond2,3.0.4,59.99161117409876,
hate,&&&&&&&&&&,right,fairness.vice,honstables,,,,,,,,,,,,,,,0,57,57,117,,,,,,,,,,,,,AMP,left,0.3169857709979169,0,,,,,,,,,,,,,,left,0,0.3169857709979169,,,,,,,,,,,1074,2019_Mar_14_1406,mf_amp_cond2,3.0.4,59.99161117409876,
terrorists,&&&&&&&&,right,fairness.vice,gournful,,,,,,,,,,,,,,,0,58,58,310,,,,,,,,,,,,,AMP,left,0.1002569597544607,0,,,,,,,,,,,,,,left,0,0.1002569597544607,,,,,,,,,,,1074,2019_Mar_14_1406,mf_amp_cond2,3.0.4,59.99161117409876,
love,&&&&&&,left,loyalty.virtue,openet,,,,,,,,,,,,,,,0,59,59,71,,,,,,,,,,,,,AMP,right,0.3336551210104517,0,,,,,,,,,,,,,,right,0,0.3336551210104517,,,,,,,,,,,1074,2019_Mar_14_1406,mf_amp_cond2,3.0.4,59.99161117409876,
brotesque,&&&&&&&&&&&&,None,nonword,feleological,,,,,,,,,,,,,,,0,60,60,319,,,,,,,,,,,,,AMP,left,0.03354877071774354,0,,,,,,,,,,,,,,left,0,0.03354877071774354,,,,,,,,,,,1074,2019_Mar_14_1406,mf_amp_cond2,3.0.4,59.99161117409876,
strength,&&&&&&,left,sanctity.virtue,laming,,,,,,,,,,,,,,,0,61,61,61,,,,,,,,,,,,,AMP,right,0.15026725482175607,0,,,,,,,,,,,,,,right,0,0.15026725482175607,,,,,,,,,,,1074,2019_Mar_14_1406,mf_amp_cond2,3.0.4,59.99161117409876,
terrorists,&&&&&&&&&&,right,fairness.vice,elduringly,,,,,,,,,,,,,,,0,62,62,85,,,,,,,,,,,,,AMP,right,0.3835249413245947,1,,,,,,,,,,,,,,right,1,0.3835249413245947,,,,,,,,,,,1074,2019_Mar_14_1406,mf_amp_cond2,3.0.4,59.99161117409876,
groups,&&&&&&&,right,loyalty.vice,nackers,,,,,,,,,,,,,,,0,63,63,4,,,,,,,,,,,,,AMP,right,0.36699606606543966,1,,,,,,,,,,,,,,right,1,0.36699606606543966,,,,,,,,,,,1074,2019_Mar_14_1406,mf_amp_cond2,3.0.4,59.99161117409876,
terrorist,&&&&&&&&&&&,right,loyalty.vice,sowntrodden,,,,,,,,,,,,,,,0,64,64,77,,,,,,,,,,,,,AMP,left,0.2669761173676761,0,,,,,,,,,,,,,,left,0,0.2669761173676761,,,,,,,,,,,1074,2019_Mar_14_1406,mf_amp_cond2,3.0.4,59.99161117409876,
good,&&&&&,left,care.virtue,saned,,,,,,,,,,,,,,,0,65,65,48,,,,,,,,,,,,,AMP,left,0.4171227819902015,1,,,,,,,,,,,,,,left,1,0.4171227819902015,,,,,,,,,,,1074,2019_Mar_14_1406,mf_amp_cond2,3.0.4,59.99161117409876,
drug,&&&&&&&&&&,right,sanctity.vice,pistraught,,,,,,,,,,,,,,,0,66,66,216,,,,,,,,,,,,,AMP,left,0.10026112909645235,0,,,,,,,,,,,,,,left,0,0.10026112909645235,,,,,,,,,,,1074,2019_Mar_14_1406,mf_amp_cond2,3.0.4,59.99161117409876,
clean,&&&&&&&&,left,sanctity.virtue,slending,,,,,,,,,,,,,,,0,67,67,113,,,,,,,,,,,,,AMP,left,0.016894815198611468,1,,,,,,,,,,,,,,left,1,0.016894815198611468,,,,,,,,,,,1074,2019_Mar_14_1406,mf_amp_cond2,3.0.4,59.99161117409876,
love,&&&&&&&&&,left,loyalty.virtue,reprisols,,,,,,,,,,,,,,,0,68,68,93,,,,,,,,,,,,,AMP,left,0.10026401556365272,1,,,,,,,,,,,,,,left,1,0.10026401556365272,,,,,,,,,,,1074,2019_Mar_14_1406,mf_amp_cond2,3.0.4,59.99161117409876,
celebrated,&&&&&&&&&&&&&,left,authority.virtue,wonderfujnoss,,,,,,,,,,,,,,,0,69,69,234,,,,,,,,,,,,,AMP,left,0.3169671693183318,1,,,,,,,,,,,,,,left,1,0.3169671693183318,,,,,,,,,,,1074,2019_Mar_14_1406,mf_amp_cond2,3.0.4,59.99161117409876,
compassion,&&&&&&&,left,care.virtue,hatigue,,,,,,,,,,,,,,,0,70,70,184,,,,,,,,,,,,,AMP,left,0.033573466050938805,1,,,,,,,,,,,,,,left,1,0.033573466050938805,,,,,,,,,,,1074,2019_Mar_14_1406,mf_amp_cond2,3.0.4,59.99161117409876,
increase,&&&&&&&&&,left,care.virtue,chressing,,,,,,,,,,,,,,,0,71,71,221,,,,,,,,,,,,,AMP,left,0.18362295293331954,1,,,,,,,,,,,,,,left,1,0.18362295293331954,,,,,,,,,,,1074,2019_Mar_14_1406,mf_amp_cond2,3.0.4,59.99161117409876,
riot,&&&&&,right,authority.vice,saned,,,,,,,,,,,,,,,0,72,72,247,,,,,,,,,,,,,AMP,right,4.601379795625235,1,,,,,,,,,,,,,,right,1,4.601379795625235,,,,,,,,,,,1074,2019_Mar_14_1406,mf_amp_cond2,3.0.4,59.99161117409876,
groups,&&&&&&&&&&&,right,loyalty.vice,sowntrodden,,,,,,,,,,,,,,,0,73,73,192,,,,,,,,,,,,,AMP,right,0.350317735931867,1,,,,,,,,,,,,,,right,1,0.350317735931867,,,,,,,,,,,1074,2019_Mar_14_1406,mf_amp_cond2,3.0.4,59.99161117409876,
charges,&&&&&&&,right,fairness.vice,nackers,,,,,,,,,,,,,,,0,74,74,87,,,,,,,,,,,,,AMP,right,0.200291661508345,1,,,,,,,,,,,,,,right,1,0.200291661508345,,,,,,,,,,,1074,2019_Mar_14_1406,mf_amp_cond2,3.0.4,59.99161117409876,
pafer,&&&&&&&&&,None,nonword,metibolic,,,,,,,,,,,,,,,0,75,75,147,,,,,,,,,,,,,AMP,right,0.05023319450492636,0,,,,,,,,,,,,,,right,0,0.05023319450492636,,,,,,,,,,,1074,2019_Mar_14_1406,mf_amp_cond2,3.0.4,59.99161117409876,
riot,&&&&&&&&&&,right,authority.vice,imebreaker,,,,,,,,,,,,,,,0,76,76,103,,,,,,,,,,,,,AMP,right,0.21694433415291314,1,,,,,,,,,,,,,,right,1,0.21694433415291314,,,,,,,,,,,1074,2019_Mar_14_1406,mf_amp_cond2,3.0.4,59.99161117409876,
strong,&&&&&&&&&,left,loyalty.virtue,crilfully,,,,,,,,,,,,,,,0,77,77,286,,,,,,,,,,,,,AMP,left,0.08357895033918794,1,,,,,,,,,,,,,,left,1,0.08357895033918794,,,,,,,,,,,1074,2019_Mar_14_1406,mf_amp_cond2,3.0.4,59.99161117409876,
energy,&&&&&&&&&,left,sanctity.virtue,Lacedonia,,,,,,,,,,,,,,,0,78,78,293,,,,,,,,,,,,,AMP,left,0.1836152556863908,1,,,,,,,,,,,,,,left,1,0.1836152556863908,,,,,,,,,,,1074,2019_Mar_14_1406,mf_amp_cond2,3.0.4,59.99161117409876,
strofe,&&&&&&&&,None,nonword,thadowed,,,,,,,,,,,,,,,0,79,79,299,,,,,,,,,,,,,AMP,left,0.4169989846050157,0,,,,,,,,,,,,,,left,0,0.4169989846050157,,,,,,,,,,,1074,2019_Mar_14_1406,mf_amp_cond2,3.0.4,59.99161117409876,
attacks,&&&&&&&&&&&,right,care.vice,lempestuous,,,,,,,,,,,,,,,0,80,80,107,,,,,,,,,,,,,AMP,left,0.30025259798117077,0,,,,,,,,,,,,,,left,0,0.30025259798117077,,,,,,,,,,,1074,2019_Mar_14_1406,mf_amp_cond2,3.0.4,59.99161117409876,
hate,&&&&&&&&,right,fairness.vice,glacenta,,,,,,,,,,,,,,,0,81,81,256,,,,,,,,,,,,,AMP,left,0.1336232415799259,0,,,,,,,,,,,,,,left,0,0.1336232415799259,,,,,,,,,,,1074,2019_Mar_14_1406,mf_amp_cond2,3.0.4,59.99161117409876,
promised,&&&&&&&&,left,loyalty.virtue,perified,,,,,,,,,,,,,,,0,82,82,121,,,,,,,,,,,,,AMP,left,0.10023899951170279,1,,,,,,,,,,,,,,left,1,0.10023899951170279,,,,,,,,,,,1074,2019_Mar_14_1406,mf_amp_cond2,3.0.4,59.99161117409876,
corruption,&&&&&&&&,right,sanctity.vice,bluently,,,,,,,,,,,,,,,0,83,83,138,,,,,,,,,,,,,AMP,right,0.08358376111846155,1,,,,,,,,,,,,,,right,1,0.08358376111846155,,,,,,,,,,,1074,2019_Mar_14_1406,mf_amp_cond2,3.0.4,59.99161117409876,
gillipede,&&&&&&&&,None,nonword,proached,,,,,,,,,,,,,,,0,84,84,33,,,,,,,,,,,,,AMP,left,0.016901229570976284,0,,,,,,,,,,,,,,left,0,0.016901229570976284,,,,,,,,,,,1074,2019_Mar_14_1406,mf_amp_cond2,3.0.4,59.99161117409876,
powerful,&&&&&&&&&&,left,authority.virtue,ejanulated,,,,,,,,,,,,,,,0,85,85,269,,,,,,,,,,,,,AMP,left,0.15023614511619598,1,,,,,,,,,,,,,,left,1,0.15023614511619598,,,,,,,,,,,1074,2019_Mar_14_1406,mf_amp_cond2,3.0.4,59.99161117409876,
greaks,&&&&&&&&&&&,None,nonword,shoirmaster,,,,,,,,,,,,,,,0,86,86,237,,,,,,,,,,,,,AMP,left,0.283659899717577,0,,,,,,,,,,,,,,left,0,0.283659899717577,,,,,,,,,,,1074,2019_Mar_14_1406,mf_amp_cond2,3.0.4,59.99161117409876,
drug,&&&&&&&&,right,sanctity.vice,glacenta,,,,,,,,,,,,,,,0,87,87,97,,,,,,,,,,,,,AMP,right,0.11693753491840653,1,,,,,,,,,,,,,,right,1,0.11693753491840653,,,,,,,,,,,1074,2019_Mar_14_1406,mf_amp_cond2,3.0.4,59.99161117409876,
sexual,&&&&&&&&&,right,sanctity.vice,reprisols,,,,,,,,,,,,,,,0,88,88,205,,,,,,,,,,,,,AMP,right,0.16694526423680145,1,,,,,,,,,,,,,,right,1,0.16694526423680145,,,,,,,,,,,1074,2019_Mar_14_1406,mf_amp_cond2,3.0.4,59.99161117409876,
good,&&&&&,left,care.virtue,aubos,,,,,,,,,,,,,,,0,89,89,279,,,,,,,,,,,,,AMP,left,0.1669596965743949,1,,,,,,,,,,,,,,left,1,0.1669596965743949,,,,,,,,,,,1074,2019_Mar_14_1406,mf_amp_cond2,3.0.4,59.99161117409876,
suicide,&&&&&&&&,right,care.vice,thadowed,,,,,,,,,,,,,,,0,90,90,166,,,,,,,,,,,,,AMP,left,0.10025503544261483,0,,,,,,,,,,,,,,left,0,0.10025503544261483,,,,,,,,,,,1074,2019_Mar_14_1406,mf_amp_cond2,3.0.4,59.99161117409876,
agreement,&&&&&&&&&&&&,left,fairness.virtue,gusinesslike,,,,,,,,,,,,,,,0,91,91,180,,,,,,,,,,,,,AMP,right,0.1001225786546911,0,,,,,,,,,,,,,,right,0,0.1001225786546911,,,,,,,,,,,1074,2019_Mar_14_1406,mf_amp_cond2,3.0.4,59.99161117409876,
abuse,&&&&&,right,sanctity.vice,aubos,,,,,,,,,,,,,,,0,92,92,10,,,,,,,,,,,,,AMP,left,0.300350737877352,0,,,,,,,,,,,,,,left,0,0.300350737877352,,,,,,,,,,,1074,2019_Mar_14_1406,mf_amp_cond2,3.0.4,59.99161117409876,
blamed,&&&&&&&&&,right,loyalty.vice,disregord,,,,,,,,,,,,,,,0,93,93,282,,,,,,,,,,,,,AMP,left,0.05024474037509208,0,,,,,,,,,,,,,,left,0,0.05024474037509208,,,,,,,,,,,1074,2019_Mar_14_1406,mf_amp_cond2,3.0.4,59.99161117409876,
protect,&&&&&&&,left,fairness.virtue,sickyay,,,,,,,,,,,,,,,0,94,94,101,,,,,,,,,,,,,AMP,left,0.38365322877052677,1,,,,,,,,,,,,,,left,1,0.38365322877052677,,,,,,,,,,,1074,2019_Mar_14_1406,mf_amp_cond2,3.0.4,59.99161117409876,
emassion,&&&&&&,None,nonword,fostet,,,,,,,,,,,,,,,0,95,95,114,,,,,,,,,,,,,AMP,left,0.2336265129097228,0,,,,,,,,,,,,,,left,0,0.2336265129097228,,,,,,,,,,,1074,2019_Mar_14_1406,mf_amp_cond2,3.0.4,59.99161117409876,
attacks,&&&&&&&&,right,care.vice,drumbled,,,,,,,,,,,,,,,0,96,96,7,,,,,,,,,,,,,AMP,left,0.10026209125203422,0,,,,,,,,,,,,,,left,0,0.10026209125203422,,,,,,,,,,,1074,2019_Mar_14_1406,mf_amp_cond2,3.0.4,59.99161117409876,
ensure,&&&&&,left,fairness.virtue,aubos,,,,,,,,,,,,,,,0,97,97,116,,,,,,,,,,,,,AMP,left,0.23362426787957702,1,,,,,,,,,,,,,,left,1,0.23362426787957702,,,,,,,,,,,1074,2019_Mar_14_1406,mf_amp_cond2,3.0.4,59.99161117409876,
abuse,&&&&&&&&,right,sanctity.vice,gournful,,,,,,,,,,,,,,,0,98,98,96,,,,,,,,,,,,,AMP,right,0.033585011921104524,1,,,,,,,,,,,,,,right,1,0.033585011921104524,,,,,,,,,,,1074,2019_Mar_14_1406,mf_amp_cond2,3.0.4,59.99161117409876,
hate,&&&&&&&&&&,right,fairness.vice,chonograph,,,,,,,,,,,,,,,0,99,99,63,,,,,,,,,,,,,AMP,left,0.1169208575504399,0,,,,,,,,,,,,,,left,0,0.1169208575504399,,,,,,,,,,,1074,2019_Mar_14_1406,mf_amp_cond2,3.0.4,59.99161117409876,
safety,&&&&&&&&,left,care.virtue,pullness,,,,,,,,,,,,,,,0,100,100,262,,,,,,,,,,,,,AMP,left,0.0501132457429776,1,,,,,,,,,,,,,,left,1,0.0501132457429776,,,,,,,,,,,1074,2019_Mar_14_1406,mf_amp_cond2,3.0.4,59.99161117409876,
pafer,&&&&&,None,nonword,ablow,,,,,,,,,,,,,,,0,101,101,236,,,,,,,,,,,,,AMP,right,0.1835729208291923,0,,,,,,,,,,,,,,right,0,0.1835729208291923,,,,,,,,,,,1074,2019_Mar_14_1406,mf_amp_cond2,3.0.4,59.99161117409876,
presentkess,&&&&&&&,None,nonword,menizen,,,,,,,,,,,,,,,0,102,102,141,,,,,,,,,,,,,AMP,left,0.11692887551566855,0,,,,,,,,,,,,,,left,0,0.11692887551566855,,,,,,,,,,,1074,2019_Mar_14_1406,mf_amp_cond2,3.0.4,59.99161117409876,
agreement,&&&&&&&&&,left,fairness.virtue,tenuflect,,,,,,,,,,,,,,,0,103,103,291,,,,,,,,,,,,,AMP,right,0.166930831899208,0,,,,,,,,,,,,,,right,0,0.166930831899208,,,,,,,,,,,1074,2019_Mar_14_1406,mf_amp_cond2,3.0.4,59.99161117409876,
unpleasant,&&&&&&&,None,control,sickyay,,,,,,,,,,,,,,,0,104,104,264,,,,,,,,,,,,,AMP,left,0.05024345750075554,0,,,,,,,,,,,,,,left,0,0.05024345750075554,,,,,,,,,,,1074,2019_Mar_14_1406,mf_amp_cond2,3.0.4,59.99161117409876,
love,&&&&&&&&&&&&,left,loyalty.virtue,nonobservalt,,,,,,,,,,,,,,,0,105,105,241,,,,,,,,,,,,,AMP,right,0.2002881336036353,0,,,,,,,,,,,,,,right,0,0.2002881336036353,,,,,,,,,,,1074,2019_Mar_14_1406,mf_amp_cond2,3.0.4,59.99161117409876,
torture,&&&&&&&&&&&,right,care.vice,blunderints,,,,,,,,,,,,,,,0,106,106,47,,,,,,,,,,,,,AMP,left,0.2669568742505817,0,,,,,,,,,,,,,,left,0,0.2669568742505817,,,,,,,,,,,1074,2019_Mar_14_1406,mf_amp_cond2,3.0.4,59.99161117409876,
killed,&&&&&&&&,right,care.vice,nuckheap,,,,,,,,,,,,,,,0,107,107,152,,,,,,,,,,,,,AMP,left,0.1336206758312528,0,,,,,,,,,,,,,,left,0,0.1336206758312528,,,,,,,,,,,1074,2019_Mar_14_1406,mf_amp_cond2,3.0.4,59.99161117409876,
interests,&&&&&&&&&,left,fairness.virtue,Lacedonia,,,,,,,,,,,,,,,0,108,108,159,,,,,,,,,,,,,AMP,left,0.30030776158287154,1,,,,,,,,,,,,,,left,1,0.30030776158287154,,,,,,,,,,,1074,2019_Mar_14_1406,mf_amp_cond2,3.0.4,59.99161117409876,
ensure,&&&&&&&&&&,left,fairness.virtue,totalestic,,,,,,,,,,,,,,,0,109,109,28,,,,,,,,,,,,,AMP,left,1.3338950185343492,1,,,,,,,,,,,,,,left,1,1.3338950185343492,,,,,,,,,,,1074,2019_Mar_14_1406,mf_amp_cond2,3.0.4,59.99161117409876,
refused,&&&&&&&&,right,authority.vice,perified,,,,,,,,,,,,,,,0,110,110,294,,,,,,,,,,,,,AMP,left,0.15027238631955697,0,,,,,,,,,,,,,,left,0,0.15027238631955697,,,,,,,,,,,1074,2019_Mar_14_1406,mf_amp_cond2,3.0.4,59.99161117409876,
praised,&&&&&&&,left,loyalty.virtue,menizen,,,,,,,,,,,,,,,0,111,111,212,,,,,,,,,,,,,AMP,left,0.13359149043708385,1,,,,,,,,,,,,,,left,1,0.13359149043708385,,,,,,,,,,,1074,2019_Mar_14_1406,mf_amp_cond2,3.0.4,59.99161117409876,
care,&&&&&&&&&,left,care.virtue,chressing,,,,,,,,,,,,,,,0,112,112,155,,,,,,,,,,,,,AMP,left,0.05024506109361937,1,,,,,,,,,,,,,,left,1,0.05024506109361937,,,,,,,,,,,1074,2019_Mar_14_1406,mf_amp_cond2,3.0.4,59.99161117409876,
promised,&&&&&&&,left,loyalty.virtue,lursuer,,,,,,,,,,,,,,,0,113,113,12,,,,,,,,,,,,,AMP,left,0.10028325868074717,1,,,,,,,,,,,,,,left,1,0.10028325868074717,,,,,,,,,,,1074,2019_Mar_14_1406,mf_amp_cond2,3.0.4,59.99161117409876,
interests,&&&&&&&&&,left,fairness.virtue,reprisols,,,,,,,,,,,,,,,0,114,114,66,,,,,,,,,,,,,AMP,left,0.2836255828260619,1,,,,,,,,,,,,,,left,1,0.2836255828260619,,,,,,,,,,,1074,2019_Mar_14_1406,mf_amp_cond2,3.0.4,59.99161117409876,
killed,&&&&&&&&,right,care.vice,slending,,,,,,,,,,,,,,,0,115,115,258,,,,,,,,,,,,,AMP,left,0.016890645856847186,0,,,,,,,,,,,,,,left,0,0.016890645856847186,,,,,,,,,,,1074,2019_Mar_14_1406,mf_amp_cond2,3.0.4,59.99161117409876,
critics,&&&&&&&&,right,loyalty.vice,gowlands,,,,,,,,,,,,,,,0,116,116,172,,,,,,,,,,,,,AMP,left,0.2169523521181418,0,,,,,,,,,,,,,,left,0,0.2169523521181418,,,,,,,,,,,1074,2019_Mar_14_1406,mf_amp_cond2,3.0.4,59.99161117409876,
black,&&&&&&&&&,right,loyalty.vice,metibolic,,,,,,,,,,,,,,,0,117,117,168,,,,,,,,,,,,,AMP,left,0.03358886054456889,0,,,,,,,,,,,,,,left,0,0.03358886054456889,,,,,,,,,,,1074,2019_Mar_14_1406,mf_amp_cond2,3.0.4,59.99161117409876,
opportunity,&&&&&&&&&&,left,fairness.virtue,simplustic,,,,,,,,,,,,,,,0,118,118,171,,,,,,,,,,,,,AMP,left,0.18363866814524954,1,,,,,,,,,,,,,,left,1,0.18363866814524954,,,,,,,,,,,1074,2019_Mar_14_1406,mf_amp_cond2,3.0.4,59.99161117409876,
great,&&&&&&&&&,left,loyalty.virtue,gondensed,,,,,,,,,,,,,,,0,119,119,280,,,,,,,,,,,,,AMP,left,0.1836053134093163,1,,,,,,,,,,,,,,left,1,0.1836053134093163,,,,,,,,,,,1074,2019_Mar_14_1406,mf_amp_cond2,3.0.4,59.99161117409876,
improve,&&&&&&&,left,care.virtue,lursuer,,,,,,,,,,,,,,,0,120,120,204,,,,,,,,,,,,,AMP,left,0.15026949985212923,1,,,,,,,,,,,,,,left,1,0.15026949985212923,,,,,,,,,,,1074,2019_Mar_14_1406,mf_amp_cond2,3.0.4,59.99161117409876,
celebrated,&&&&&&,left,authority.virtue,fegard,,,,,,,,,,,,,,,0,121,121,322,,,,,,,,,,,,,AMP,left,0.033571221020565645,1,,,,,,,,,,,,,,left,1,0.033571221020565645,,,,,,,,,,,1074,2019_Mar_14_1406,mf_amp_cond2,3.0.4,59.99161117409876,
police,&&&&&&&&&,right,authority.vice,baladroit,,,,,,,,,,,,,,,0,122,122,278,,,,,,,,,,,,,AMP,left,0.08359691058171848,0,,,,,,,,,,,,,,left,0,0.08359691058171848,,,,,,,,,,,1074,2019_Mar_14_1406,mf_amp_cond2,3.0.4,59.99161117409876,
free,&&&&&&,left,fairness.virtue,fostet,,,,,,,,,,,,,,,0,123,123,39,,,,,,,,,,,,,AMP,left,0.25028944854989277,1,,,,,,,,,,,,,,left,1,0.25028944854989277,,,,,,,,,,,1074,2019_Mar_14_1406,mf_amp_cond2,3.0.4,59.99161117409876,
blamed,&&&&&&&&&&,right,loyalty.vice,honstables,,,,,,,,,,,,,,,0,124,124,60,,,,,,,,,,,,,AMP,left,0.16694815070445657,0,,,,,,,,,,,,,,left,0,0.16694815070445657,,,,,,,,,,,1074,2019_Mar_14_1406,mf_amp_cond2,3.0.4,59.99161117409876,
praised,&&&&&&,left,loyalty.virtue,forepo,,,,,,,,,,,,,,,0,125,125,90,,,,,,,,,,,,,AMP,right,0.10025246969371437,0,,,,,,,,,,,,,,right,0,0.10025246969371437,,,,,,,,,,,1074,2019_Mar_14_1406,mf_amp_cond2,3.0.4,59.99161117409876,
rebels,&&&&&&&&&&,right,authority.vice,totalestic,,,,,,,,,,,,,,,0,126,126,112,,,,,,,,,,,,,AMP,left,0.05025564480797584,0,,,,,,,,,,,,,,left,0,0.05025564480797584,,,,,,,,,,,1074,2019_Mar_14_1406,mf_amp_cond2,3.0.4,59.99161117409876,
compassion,&&&&&&&,left,care.virtue,smapper,,,,,,,,,,,,,,,0,127,127,320,,,,,,,,,,,,,AMP,left,0.3503129251525934,1,,,,,,,,,,,,,,left,1,0.3503129251525934,,,,,,,,,,,1074,2019_Mar_14_1406,mf_amp_cond2,3.0.4,59.99161117409876,
suicide,&&&&&&&&,right,care.vice,epigrach,,,,,,,,,,,,,,,0,128,128,142,,,,,,,,,,,,,AMP,right,0.0002536884244364046,1,,,,,,,,,,,,,,right,1,0.0002536884244364046,,,,,,,,,,,1074,2019_Mar_14_1406,mf_amp_cond2,3.0.4,59.99161117409876,
war,&&&&&&,right,sanctity.vice,bycled,,,,,,,,,,,,,,,0,129,129,175,,,,,,,,,,,,,AMP,left,0.01690892681767764,0,,,,,,,,,,,,,,left,0,0.01690892681767764,,,,,,,,,,,1074,2019_Mar_14_1406,mf_amp_cond2,3.0.4,59.99161117409876,
blamed,&&&&&&&&,right,loyalty.vice,proached,,,,,,,,,,,,,,,0,130,130,137,,,,,,,,,,,,,AMP,left,0.18364379964327782,0,,,,,,,,,,,,,,left,0,0.18364379964327782,,,,,,,,,,,1074,2019_Mar_14_1406,mf_amp_cond2,3.0.4,59.99161117409876,
sexual,&&&&&&&,right,sanctity.vice,nackers,,,,,,,,,,,,,,,0,131,131,313,,,,,,,,,,,,,AMP,left,0.5837146143135215,0,,,,,,,,,,,,,,left,0,0.5837146143135215,,,,,,,,,,,1074,2019_Mar_14_1406,mf_amp_cond2,3.0.4,59.99161117409876,
greaks,&&&&&&&&&&,None,nonword,elduringly,,,,,,,,,,,,,,,0,132,132,5,,,,,,,,,,,,,AMP,left,0.40037742166600765,0,,,,,,,,,,,,,,left,0,0.40037742166600765,,,,,,,,,,,1074,2019_Mar_14_1406,mf_amp_cond2,3.0.4,59.99161117409876,
useful,&&&&&&&&&,left,authority.virtue,crilfully,,,,,,,,,,,,,,,0,133,133,123,,,,,,,,,,,,,AMP,right,0.3169873745910081,0,,,,,,,,,,,,,,right,0,0.3169873745910081,,,,,,,,,,,1074,2019_Mar_14_1406,mf_amp_cond2,3.0.4,59.99161117409876,
death,&&&&&,right,care.vice,ablow,,,,,,,,,,,,,,,0,134,134,68,,,,,,,,,,,,,AMP,left,0.4003216166270249,0,,,,,,,,,,,,,,left,0,0.4003216166270249,,,,,,,,,,,1074,2019_Mar_14_1406,mf_amp_cond2,3.0.4,59.99161117409876,
perfect,&&&&&&&&&&,left,sanctity.virtue,elduringly,,,,,,,,,,,,,,,0,135,135,305,,,,,,,,,,,,,AMP,right,0.35031869808767624,0,,,,,,,,,,,,,,right,0,0.35031869808767624,,,,,,,,,,,1074,2019_Mar_14_1406,mf_amp_cond2,3.0.4,59.99161117409876,
strofe,&&&&&&&&&&&,None,nonword,fornicalion,,,,,,,,,,,,,,,0,136,136,73,,,,,,,,,,,,,AMP,left,0.28352551861803477,0,,,,,,,,,,,,,,left,0,0.28352551861803477,,,,,,,,,,,1074,2019_Mar_14_1406,mf_amp_cond2,3.0.4,59.99161117409876,
strofe,&&&&&,None,nonword,mecan,,,,,,,,,,,,,,,0,137,137,105,,,,,,,,,,,,,AMP,left,0.5003534319137088,0,,,,,,,,,,,,,,left,0,0.5003534319137088,,,,,,,,,,,1074,2019_Mar_14_1406,mf_amp_cond2,3.0.4,59.99161117409876,
improve,&&&&,left,care.virtue,alar,,,,,,,,,,,,,,,0,138,138,288,,,,,,,,,,,,,AMP,right,1.8173222048251318,0,,,,,,,,,,,,,,right,0,1.8173222048251318,,,,,,,,,,,1074,2019_Mar_14_1406,mf_amp_cond2,3.0.4,59.99161117409876,
officers,&&&&&,right,authority.vice,touls,,,,,,,,,,,,,,,0,139,139,250,,,,,,,,,,,,,AMP,left,0.5336927733756056,0,,,,,,,,,,,,,,left,0,0.5336927733756056,,,,,,,,,,,1074,2019_Mar_14_1406,mf_amp_cond2,3.0.4,59.99161117409876,
charges,&&&&&&&&,right,fairness.vice,slending,,,,,,,,,,,,,,,0,140,140,19,,,,,,,,,,,,,AMP,left,0.4670160147632032,0,,,,,,,,,,,,,,left,0,0.4670160147632032,,,,,,,,,,,1074,2019_Mar_14_1406,mf_amp_cond2,3.0.4,59.99161117409876,
accused,&&&,right,fairness.vice,asn,,,,,,,,,,,,,,,0,141,141,201,,,,,,,,,,,,,AMP,left,0.06694231362553182,0,,,,,,,,,,,,,,left,0,0.06694231362553182,,,,,,,,,,,1074,2019_Mar_14_1406,mf_amp_cond2,3.0.4,59.99161117409876,
strong,&&&&&&&&&,left,loyalty.virtue,fangsters,,,,,,,,,,,,,,,0,142,142,197,,,,,,,,,,,,,AMP,right,0.5002790251949136,0,,,,,,,,,,,,,,right,0,0.5002790251949136,,,,,,,,,,,1074,2019_Mar_14_1406,mf_amp_cond2,3.0.4,59.99161117409876,
suicide,&&&&&&,right,care.vice,openet,,,,,,,,,,,,,,,0,143,143,257,,,,,,,,,,,,,AMP,left,0.4003787045403442,0,,,,,,,,,,,,,,left,0,0.4003787045403442,,,,,,,,,,,1074,2019_Mar_14_1406,mf_amp_cond2,3.0.4,59.99161117409876,
emassion,&&&&&,None,nonword,touls,,,,,,,,,,,,,,,0,144,144,165,,,,,,,,,,,,,AMP,left,0.3836853006318961,0,,,,,,,,,,,,,,left,0,0.3836853006318961,,,,,,,,,,,1074,2019_Mar_14_1406,mf_amp_cond2,3.0.4,59.99161117409876,
pleasant,&&&&&&&,None,control,lursuer,,,,,,,,,,,,,,,0,145,145,309,,,,,,,,,,,,,AMP,right,1.4506013153311414,0,,,,,,,,,,,,,,right,0,1.4506013153311414,,,,,,,,,,,1074,2019_Mar_14_1406,mf_amp_cond2,3.0.4,59.99161117409876,
promote,&&&&&&&&&,left,sanctity.virtue,chressing,,,,,,,,,,,,,,,0,146,146,65,,,,,,,,,,,,,AMP,left,0.3169876953095354,1,,,,,,,,,,,,,,left,1,0.3169876953095354,,,,,,,,,,,1074,2019_Mar_14_1406,mf_amp_cond2,3.0.4,59.99161117409876,
promises,&&&&&&&&&,left,fairness.virtue,disregord,,,,,,,,,,,,,,,0,147,147,211,,,,,,,,,,,,,AMP,left,0.11694908078834487,1,,,,,,,,,,,,,,left,1,0.11694908078834487,,,,,,,,,,,1074,2019_Mar_14_1406,mf_amp_cond2,3.0.4,59.99161117409876,
respect,&&&&&&&&&&&,left,sanctity.virtue,blunderints,,,,,,,,,,,,,,,0,148,148,126,,,,,,,,,,,,,AMP,left,0.03357250389512956,1,,,,,,,,,,,,,,left,1,0.03357250389512956,,,,,,,,,,,1074,2019_Mar_14_1406,mf_amp_cond2,3.0.4,59.99161117409876,
police,&&&&&&&,right,authority.vice,scalbel,,,,,,,,,,,,,,,0,149,149,244,,,,,,,,,,,,,AMP,left,0.8504463440963264,0,,,,,,,,,,,,,,left,0,0.8504463440963264,,,,,,,,,,,1074,2019_Mar_14_1406,mf_amp_cond2,3.0.4,59.99161117409876,
embrace,&&&&&&&&,left,authority.virtue,gowlands,,,,,,,,,,,,,,,0,150,150,317,,,,,,,,,,,,,AMP,left,0.10024765891444076,1,,,,,,,,,,,,,,left,1,0.10024765891444076,,,,,,,,,,,1074,2019_Mar_14_1406,mf_amp_cond2,3.0.4,59.99161117409876,
interests,&&&&&&&&,left,fairness.virtue,gournful,,,,,,,,,,,,,,,0,151,151,243,,,,,,,,,,,,,AMP,left,0.4336773147385884,1,,,,,,,,,,,,,,left,1,0.4336773147385884,,,,,,,,,,,1074,2019_Mar_14_1406,mf_amp_cond2,3.0.4,59.99161117409876,
restore,&&&&&&,left,care.virtue,sgrawl,,,,,,,,,,,,,,,0,152,152,9,,,,,,,,,,,,,AMP,left,0.533704639964526,1,,,,,,,,,,,,,,left,1,0.533704639964526,,,,,,,,,,,1074,2019_Mar_14_1406,mf_amp_cond2,3.0.4,59.99161117409876,
presentkess,&&&&&&&&&&&,None,nonword,egpeditious,,,,,,,,,,,,,,,0,153,153,181,,,,,,,,,,,,,AMP,left,0.4336741075521786,0,,,,,,,,,,,,,,left,0,0.4336741075521786,,,,,,,,,,,1074,2019_Mar_14_1406,mf_amp_cond2,3.0.4,59.99161117409876,
allears,&&&&&,None,nonword,dumid,,,,,,,,,,,,,,,0,154,154,276,,,,,,,,,,,,,AMP,left,0.21696101152087977,0,,,,,,,,,,,,,,left,0,0.21696101152087977,,,,,,,,,,,1074,2019_Mar_14_1406,mf_amp_cond2,3.0.4,59.99161117409876,
scandal,&&&&&&&&&&&,right,sanctity.vice,neneficence,,,,,,,,,,,,,,,0,155,155,30,,,,,,,,,,,,,AMP,left,0.11687691910015019,0,,,,,,,,,,,,,,left,0,0.11687691910015019,,,,,,,,,,,1074,2019_Mar_14_1406,mf_amp_cond2,3.0.4,59.99161117409876,
strength,&&&&&&&&&&&&&,left,sanctity.virtue,wonderfujnoss,,,,,,,,,,,,,,,0,156,156,324,,,,,,,,,,,,,AMP,left,0.583723273716032,1,,,,,,,,,,,,,,left,1,0.583723273716032,,,,,,,,,,,1074,2019_Mar_14_1406,mf_amp_cond2,3.0.4,59.99161117409876,
respect,&&&&&&&,left,sanctity.virtue,sickyay,,,,,,,,,,,,,,,0,157,157,195,,,,,,,,,,,,,AMP,left,0.2002881336036353,1,,,,,,,,,,,,,,left,1,0.2002881336036353,,,,,,,,,,,1074,2019_Mar_14_1406,mf_amp_cond2,3.0.4,59.99161117409876,
attacks,&&&&&&&&&&&,right,care.vice,shoirmaster,,,,,,,,,,,,,,,0,158,158,285,,,,,,,,,,,,,AMP,left,0.35032831964622346,0,,,,,,,,,,,,,,left,0,0.35032831964622346,,,,,,,,,,,1074,2019_Mar_14_1406,mf_amp_cond2,3.0.4,59.99161117409876,
illegal,&&&&&&&&,right,fairness.vice,suggists,,,,,,,,,,,,,,,0,159,159,327,,,,,,,,,,,,,AMP,left,0.000251443394290618,0,,,,,,,,,,,,,,left,0,0.000251443394290618,,,,,,,,,,,1074,2019_Mar_14_1406,mf_amp_cond2,3.0.4,59.99161117409876,
officers,&&&&&,right,authority.vice,dumid,,,,,,,,,,,,,,,0,160,160,42,,,,,,,,,,,,,AMP,left,0.000251122675535953,0,,,,,,,,,,,,,,left,0,0.000251122675535953,,,,,,,,,,,1074,2019_Mar_14_1406,mf_amp_cond2,3.0.4,59.99161117409876,
ensure,&&&&&&&&&&&,left,fairness.virtue,lempestuous,,,,,,,,,,,,,,,0,161,161,242,,,,,,,,,,,,,AMP,left,0.0002501605197267054,1,,,,,,,,,,,,,,left,1,0.0002501605197267054,,,,,,,,,,,1074,2019_Mar_14_1406,mf_amp_cond2,3.0.4,59.99161117409876,
failure,&&&&&&&&&&,right,loyalty.vice,honstables,,,,,,,,,,,,,,,0,162,162,223,,,,,,,,,,,,,AMP,left,0.46700190314413703,0,,,,,,,,,,,,,,left,0,0.46700190314413703,,,,,,,,,,,1074,2019_Mar_14_1406,mf_amp_cond2,3.0.4,59.99161117409876,
care,&&&&&&&&,left,care.virtue,sliptery,,,,,,,,,,,,,,,0,163,163,34,,,,,,,,,,,,,AMP,left,0.016910851129523508,1,,,,,,,,,,,,,,left,1,0.016910851129523508,,,,,,,,,,,1074,2019_Mar_14_1406,mf_amp_cond2,3.0.4,59.99161117409876,
attacks,&&&&&&,right,care.vice,pumber,,,,,,,,,,,,,,,0,164,164,210,,,,,,,,,,,,,AMP,left,0.050229345881461995,0,,,,,,,,,,,,,,left,0,0.050229345881461995,,,,,,,,,,,1074,2019_Mar_14_1406,mf_amp_cond2,3.0.4,59.99161117409876,
intelligence,&&&&&&&&&&&,left,loyalty.virtue,neneficence,,,,,,,,,,,,,,,0,165,165,110,,,,,,,,,,,,,AMP,left,0.48365040644671353,1,,,,,,,,,,,,,,left,1,0.48365040644671353,,,,,,,,,,,1074,2019_Mar_14_1406,mf_amp_cond2,3.0.4,59.99161117409876,
protect,&&&&&&&&&,left,fairness.virtue,Lacedonia,,,,,,,,,,,,,,,0,166,166,67,,,,,,,,,,,,,AMP,left,0.05026366277320449,1,,,,,,,,,,,,,,left,1,0.05026366277320449,,,,,,,,,,,1074,2019_Mar_14_1406,mf_amp_cond2,3.0.4,59.99161117409876,
promises,&&&&&&&&&&&,left,fairness.virtue,shoirmaster,,,,,,,,,,,,,,,0,167,167,16,,,,,,,,,,,,,AMP,left,0.4503636628373897,1,,,,,,,,,,,,,,left,1,0.4503636628373897,,,,,,,,,,,1074,2019_Mar_14_1406,mf_amp_cond2,3.0.4,59.99161117409876,
great,&&&&&&&,left,loyalty.virtue,chadows,,,,,,,,,,,,,,,0,168,168,75,,,,,,,,,,,,,AMP,left,0.033629591808676196,1,,,,,,,,,,,,,,left,1,0.033629591808676196,,,,,,,,,,,1074,2019_Mar_14_1406,mf_amp_cond2,3.0.4,59.99161117409876,
improve,&&&&&&&&&&&&,left,care.virtue,nonobservalt,,,,,,,,,,,,,,,0,169,169,91,,,,,,,,,,,,,AMP,left,0.5003803722775046,1,,,,,,,,,,,,,,left,1,0.5003803722775046,,,,,,,,,,,1074,2019_Mar_14_1406,mf_amp_cond2,3.0.4,59.99161117409876,
intelligence,&&&&&&&&&,left,loyalty.virtue,gondensed,,,,,,,,,,,,,,,0,170,170,44,,,,,,,,,,,,,AMP,left,0.01688423148448237,1,,,,,,,,,,,,,,left,1,0.01688423148448237,,,,,,,,,,,1074,2019_Mar_14_1406,mf_amp_cond2,3.0.4,59.99161117409876,
promised,&&&&&&&&,left,loyalty.virtue,slending,,,,,,,,,,,,,,,0,171,171,215,,,,,,,,,,,,,AMP,left,0.3169860917166716,1,,,,,,,,,,,,,,left,1,0.3169860917166716,,,,,,,,,,,1074,2019_Mar_14_1406,mf_amp_cond2,3.0.4,59.99161117409876,
failure,&&&&&&&&&&,right,loyalty.vice,ejanulated,,,,,,,,,,,,,,,0,172,172,139,,,,,,,,,,,,,AMP,left,0.28364546737998353,0,,,,,,,,,,,,,,left,0,0.28364546737998353,,,,,,,,,,,1074,2019_Mar_14_1406,mf_amp_cond2,3.0.4,59.99161117409876,
illegal,&&&&&,right,fairness.vice,atson,,,,,,,,,,,,,,,0,173,173,146,,,,,,,,,,,,,AMP,left,0.5670269833399288,0,,,,,,,,,,,,,,left,0,0.5670269833399288,,,,,,,,,,,1074,2019_Mar_14_1406,mf_amp_cond2,3.0.4,59.99161117409876,
terrorist,&&&&&&&&&&&&&,right,loyalty.vice,idexpressible,,,,,,,,,,,,,,,0,174,174,133,,,,,,,,,,,,,AMP,left,0.00024983980119941407,0,,,,,,,,,,,,,,left,0,0.00024983980119941407,,,,,,,,,,,1074,2019_Mar_14_1406,mf_amp_cond2,3.0.4,59.99161117409876,
perfect,&&&&&&&&&,left,sanctity.virtue,faspberry,,,,,,,,,,,,,,,0,175,175,54,,,,,,,,,,,,,AMP,left,0.050253399777830055,1,,,,,,,,,,,,,,left,1,0.050253399777830055,,,,,,,,,,,1074,2019_Mar_14_1406,mf_amp_cond2,3.0.4,59.99161117409876,
blamed,&&&&&&&&&,right,loyalty.vice,baladroit,,,,,,,,,,,,,,,0,176,176,233,,,,,,,,,,,,,AMP,left,0.21696357726978022,0,,,,,,,,,,,,,,left,0,0.21696357726978022,,,,,,,,,,,1074,2019_Mar_14_1406,mf_amp_cond2,3.0.4,59.99161117409876,
groups,&&&&&&&&&&&,right,loyalty.vice,lempestuous,,,,,,,,,,,,,,,0,177,177,303,,,,,,,,,,,,,AMP,left,0.11693977994855231,0,,,,,,,,,,,,,,left,0,0.11693977994855231,,,,,,,,,,,1074,2019_Mar_14_1406,mf_amp_cond2,3.0.4,59.99161117409876,
gationwide,&&&&&,None,nonword,atson,,,,,,,,,,,,,,,0,178,178,220,,,,,,,,,,,,,AMP,left,0.10023386801390188,0,,,,,,,,,,,,,,left,0,0.10023386801390188,,,,,,,,,,,1074,2019_Mar_14_1406,mf_amp_cond2,3.0.4,59.99161117409876,
opportunity,&&&&&&&&&,left,fairness.virtue,seachwear,,,,,,,,,,,,,,,0,179,179,251,,,,,,,,,,,,,AMP,left,0.18366400491595414,1,,,,,,,,,,,,,,left,1,0.18366400491595414,,,,,,,,,,,1074,2019_Mar_14_1406,mf_amp_cond2,3.0.4,59.99161117409876,
refused,&&&&&&&&&&,right,authority.vice,chonograph,,,,,,,,,,,,,,,0,180,180,151,,,,,,,,,,,,,AMP,left,0.08358055393227914,0,,,,,,,,,,,,,,left,0,0.08358055393227914,,,,,,,,,,,1074,2019_Mar_14_1406,mf_amp_cond2,3.0.4,59.99161117409876,
accused,&&&&&,right,fairness.vice,hasks,,,,,,,,,,,,,,,0,181,181,109,,,,,,,,,,,,,AMP,left,0.05023191163036245,0,,,,,,,,,,,,,,left,0,0.05023191163036245,,,,,,,,,,,1074,2019_Mar_14_1406,mf_amp_cond2,3.0.4,59.99161117409876,
love,&&&&&&&&&,left,loyalty.virtue,fangsters,,,,,,,,,,,,,,,0,182,182,266,,,,,,,,,,,,,AMP,left,0.16693371836663573,1,,,,,,,,,,,,,,left,1,0.16693371836663573,,,,,,,,,,,1074,2019_Mar_14_1406,mf_amp_cond2,3.0.4,59.99161117409876,
unpleasant,&&&&&&&&&,None,control,tenuflect,,,,,,,,,,,,,,,0,183,183,80,,,,,,,,,,,,,AMP,right,0.21698217894936533,0,,,,,,,,,,,,,,right,0,0.21698217894936533,,,,,,,,,,,1074,2019_Mar_14_1406,mf_amp_cond2,3.0.4,59.99161117409876,
killed,&&&&&&&&&&,right,care.vice,ejanulated,,,,,,,,,,,,,,,0,184,184,51,,,,,,,,,,,,,AMP,left,0.06691761829233656,0,,,,,,,,,,,,,,left,0,0.06691761829233656,,,,,,,,,,,1074,2019_Mar_14_1406,mf_amp_cond2,3.0.4,59.99161117409876,
scandal,&&&&&,right,sanctity.vice,mecan,,,,,,,,,,,,,,,0,185,185,265,,,,,,,,,,,,,AMP,left,0.050360199076521894,0,,,,,,,,,,,,,,left,0,0.050360199076521894,,,,,,,,,,,1074,2019_Mar_14_1406,mf_amp_cond2,3.0.4,59.99161117409876,
died,&&&&&&,right,care.vice,laming,,,,,,,,,,,,,,,0,186,186,120,,,,,,,,,,,,,AMP,left,0.36697586079276334,0,,,,,,,,,,,,,,left,0,0.36697586079276334,,,,,,,,,,,1074,2019_Mar_14_1406,mf_amp_cond2,3.0.4,59.99161117409876,
corruption,&&&&&&&&&&&,right,sanctity.vice,lempestuous,,,,,,,,,,,,,,,0,187,187,3,,,,,,,,,,,,,AMP,left,0.05025051331017494,0,,,,,,,,,,,,,,left,0,0.05025051331017494,,,,,,,,,,,1074,2019_Mar_14_1406,mf_amp_cond2,3.0.4,59.99161117409876,
freedom,&&&&&&&,left,sanctity.virtue,sickyay,,,,,,,,,,,,,,,0,188,188,15,,,,,,,,,,,,,AMP,left,0.7337519138882271,1,,,,,,,,,,,,,,left,1,0.7337519138882271,,,,,,,,,,,1074,2019_Mar_14_1406,mf_amp_cond2,3.0.4,59.99161117409876,
gun,&&&&&&&&&,right,authority.vice,crilfully,,,,,,,,,,,,,,,0,189,189,17,,,,,,,,,,,,,AMP,left,0.15027014128941119,0,,,,,,,,,,,,,,left,0,0.15027014128941119,,,,,,,,,,,1074,2019_Mar_14_1406,mf_amp_cond2,3.0.4,59.99161117409876,
restore,&&&&&&&&,left,care.virtue,lachelor,,,,,,,,,,,,,,,0,190,190,118,,,,,,,,,,,,,AMP,left,0.08358504399302547,1,,,,,,,,,,,,,,left,1,0.08358504399302547,,,,,,,,,,,1074,2019_Mar_14_1406,mf_amp_cond2,3.0.4,59.99161117409876,
encourage,&&&&&&,left,authority.virtue,forepo,,,,,,,,,,,,,,,0,191,191,207,,,,,,,,,,,,,AMP,left,0.733745178797335,1,,,,,,,,,,,,,,left,1,0.733745178797335,,,,,,,,,,,1074,2019_Mar_14_1406,mf_amp_cond2,3.0.4,59.99161117409876,
officers,&&&&&&,right,authority.vice,sgrawl,,,,,,,,,,,,,,,0,192,192,222,,,,,,,,,,,,,AMP,left,0.3669755400740087,0,,,,,,,,,,,,,,left,0,0.3669755400740087,,,,,,,,,,,1074,2019_Mar_14_1406,mf_amp_cond2,3.0.4,59.99161117409876,
pleasant,&&&&&&&&,None,control,bluently,,,,,,,,,,,,,,,0,193,193,22,,,,,,,,,,,,,AMP,left,0.7170700558499448,0,,,,,,,,,,,,,,left,0,0.7170700558499448,,,,,,,,,,,1074,2019_Mar_14_1406,mf_amp_cond2,3.0.4,59.99161117409876,
charges,&&&&,right,fairness.vice,alar,,,,,,,,,,,,,,,0,194,194,219,,,,,,,,,,,,,AMP,left,0.5837059549107835,0,,,,,,,,,,,,,,left,0,0.5837059549107835,,,,,,,,,,,1074,2019_Mar_14_1406,mf_amp_cond2,3.0.4,59.99161117409876,
energy,&&&&&&&&&&&,left,sanctity.virtue,fornicalion,,,,,,,,,,,,,,,0,195,195,239,,,,,,,,,,,,,AMP,right,0.3336487066380869,0,,,,,,,,,,,,,,right,0,0.3336487066380869,,,,,,,,,,,1074,2019_Mar_14_1406,mf_amp_cond2,3.0.4,59.99161117409876,
abuse,&&&&&&&&&&,right,sanctity.vice,ejanulated,,,,,,,,,,,,,,,0,196,196,226,,,,,,,,,,,,,AMP,left,0.3169758287208424,0,,,,,,,,,,,,,,left,0,0.3169758287208424,,,,,,,,,,,1074,2019_Mar_14_1406,mf_amp_cond2,3.0.4,59.99161117409876,
clean,&&&&&&&&&,left,sanctity.virtue,faspberry,,,,,,,,,,,,,,,0,197,197,189,,,,,,,,,,,,,AMP,right,0.517022461207489,0,,,,,,,,,,,,,,right,0,0.517022461207489,,,,,,,,,,,1074,2019_Mar_14_1406,mf_amp_cond2,3.0.4,59.99161117409876,
violence,&&&&&&&&&,right,care.vice,unscothed,,,,,,,,,,,,,,,0,198,198,20,,,,,,,,,,,,,AMP,left,0.6670892668948909,0,,,,,,,,,,,,,,left,0,0.6670892668948909,,,,,,,,,,,1074,2019_Mar_14_1406,mf_amp_cond2,3.0.4,59.99161117409876,
praised,&&&&&&&&&&&&&,left,loyalty.virtue,idexpressible,,,,,,,,,,,,,,,0,199,199,50,,,,,,,,,,,,,AMP,left,0.11692759264110464,1,,,,,,,,,,,,,,left,1,0.11692759264110464,,,,,,,,,,,1074,2019_Mar_14_1406,mf_amp_cond2,3.0.4,59.99161117409876,
energy,&&&&&&&&,left,sanctity.virtue,epigrach,,,,,,,,,,,,,,,0,200,200,23,,,,,,,,,,,,,AMP,left,0.15026917913337456,1,,,,,,,,,,,,,,left,1,0.15026917913337456,,,,,,,,,,,1074,2019_Mar_14_1406,mf_amp_cond2,3.0.4,59.99161117409876,
arrests,&&&&&&&&&&&&,right,authority.vice,gusinesslike,,,,,,,,,,,,,,,0,201,201,108,,,,,,,,,,,,,AMP,left,0.1002604876591704,0,,,,,,,,,,,,,,left,0,0.1002604876591704,,,,,,,,,,,1074,2019_Mar_14_1406,mf_amp_cond2,3.0.4,59.99161117409876,
death,&&&&&,right,care.vice,aubos,,,,,,,,,,,,,,,0,202,202,191,,,,,,,,,,,,,AMP,left,0.10025824262879723,0,,,,,,,,,,,,,,left,0,0.10025824262879723,,,,,,,,,,,1074,2019_Mar_14_1406,mf_amp_cond2,3.0.4,59.99161117409876,
protect,&&&&&&&&&,left,fairness.virtue,unscothed,,,,,,,,,,,,,,,0,203,203,275,,,,,,,,,,,,,AMP,left,0.11694619432091713,1,,,,,,,,,,,,,,left,1,0.11694619432091713,,,,,,,,,,,1074,2019_Mar_14_1406,mf_amp_cond2,3.0.4,59.99161117409876,
trust,&&&&&&,left,authority.virtue,sgrawl,,,,,,,,,,,,,,,0,204,204,129,,,,,,,,,,,,,AMP,left,0.016904436757158692,1,,,,,,,,,,,,,,left,1,0.016904436757158692,,,,,,,,,,,1074,2019_Mar_14_1406,mf_amp_cond2,3.0.4,59.99161117409876,
strofe,&&&&&,None,nonword,hasks,,,,,,,,,,,,,,,0,205,205,187,,,,,,,,,,,,,AMP,left,0.1169298376714778,0,,,,,,,,,,,,,,left,0,0.1169298376714778,,,,,,,,,,,1074,2019_Mar_14_1406,mf_amp_cond2,3.0.4,59.99161117409876,
energy,&&&&&&,left,sanctity.virtue,erdest,,,,,,,,,,,,,,,0,206,206,88,,,,,,,,,,,,,AMP,left,0.33364934807536883,1,,,,,,,,,,,,,,left,1,0.33364934807536883,,,,,,,,,,,1074,2019_Mar_14_1406,mf_amp_cond2,3.0.4,59.99161117409876,
improve,&&&&&&&&&&&,left,care.virtue,egpeditious,,,,,,,,,,,,,,,0,207,207,72,,,,,,,,,,,,,AMP,left,0.2669918325798335,1,,,,,,,,,,,,,,left,1,0.2669918325798335,,,,,,,,,,,1074,2019_Mar_14_1406,mf_amp_cond2,3.0.4,59.99161117409876,
crinking,&&&&&&&&&&&,None,nonword,egpeditious,,,,,,,,,,,,,,,0,208,208,311,,,,,,,,,,,,,AMP,left,0.0336129144404822,0,,,,,,,,,,,,,,left,0,0.0336129144404822,,,,,,,,,,,1074,2019_Mar_14_1406,mf_amp_cond2,3.0.4,59.99161117409876,
trust,&&&&&&&&&,left,authority.virtue,crilfully,,,,,,,,,,,,,,,0,209,209,227,,,,,,,,,,,,,AMP,left,0.016910851129523508,1,,,,,,,,,,,,,,left,1,0.016910851129523508,,,,,,,,,,,1074,2019_Mar_14_1406,mf_amp_cond2,3.0.4,59.99161117409876,
pafer,&&&&&&&&&&&&,None,nonword,feleological,,,,,,,,,,,,,,,0,210,210,74,,,,,,,,,,,,,AMP,left,0.15026244404270983,0,,,,,,,,,,,,,,left,0,0.15026244404270983,,,,,,,,,,,1074,2019_Mar_14_1406,mf_amp_cond2,3.0.4,59.99161117409876,
drug,&&&&&&&&,right,sanctity.vice,proached,,,,,,,,,,,,,,,0,211,211,260,,,,,,,,,,,,,AMP,left,0.11690193515187275,0,,,,,,,,,,,,,,left,0,0.11690193515187275,,,,,,,,,,,1074,2019_Mar_14_1406,mf_amp_cond2,3.0.4,59.99161117409876,
gun,&&&&&&,right,authority.vice,fegard,,,,,,,,,,,,,,,0,212,212,83,,,,,,,,,,,,,AMP,left,0.01688423148448237,0,,,,,,,,,,,,,,left,0,0.01688423148448237,,,,,,,,,,,1074,2019_Mar_14_1406,mf_amp_cond2,3.0.4,59.99161117409876,
conspiracy,&&&&&&&&&&&,right,sanctity.vice,shoirmaster,,,,,,,,,,,,,,,0,213,213,132,,,,,,,,,,,,,AMP,left,0.2169488242134321,0,,,,,,,,,,,,,,left,0,0.2169488242134321,,,,,,,,,,,1074,2019_Mar_14_1406,mf_amp_cond2,3.0.4,59.99161117409876,
refused,&&&&&&,right,authority.vice,fegard,,,,,,,,,,,,,,,0,214,214,27,,,,,,,,,,,,,AMP,left,0.05024057103310042,0,,,,,,,,,,,,,,left,0,0.05024057103310042,,,,,,,,,,,1074,2019_Mar_14_1406,mf_amp_cond2,3.0.4,59.99161117409876,
opportunity,&&&&&&&&,left,fairness.virtue,glacenta,,,,,,,,,,,,,,,0,215,215,25,,,,,,,,,,,,,AMP,left,0.10025663903570603,1,,,,,,,,,,,,,,left,1,0.10025663903570603,,,,,,,,,,,1074,2019_Mar_14_1406,mf_amp_cond2,3.0.4,59.99161117409876,
respect,&&&&&&,left,sanctity.virtue,pumber,,,,,,,,,,,,,,,0,216,216,29,,,,,,,,,,,,,AMP,left,0.0002530469871544483,1,,,,,,,,,,,,,,left,1,0.0002530469871544483,,,,,,,,,,,1074,2019_Mar_14_1406,mf_amp_cond2,3.0.4,59.99161117409876,
officers,&&&&&&&&&,right,authority.vice,baladroit,,,,,,,,,,,,,,,0,217,217,125,,,,,,,,,,,,,AMP,left,0.250295221485203,0,,,,,,,,,,,,,,left,0,0.250295221485203,,,,,,,,,,,1074,2019_Mar_14_1406,mf_amp_cond2,3.0.4,59.99161117409876,
compassion,&&&&&,left,care.virtue,pulge,,,,,,,,,,,,,,,0,218,218,31,,,,,,,,,,,,,AMP,left,0.0002469533335442975,1,,,,,,,,,,,,,,left,1,0.0002469533335442975,,,,,,,,,,,1074,2019_Mar_14_1406,mf_amp_cond2,3.0.4,59.99161117409876,
war,&&&&&&&&,right,sanctity.vice,thadowed,,,,,,,,,,,,,,,0,219,219,153,,,,,,,,,,,,,AMP,left,0.3169809602186433,0,,,,,,,,,,,,,,left,0,0.3169809602186433,,,,,,,,,,,1074,2019_Mar_14_1406,mf_amp_cond2,3.0.4,59.99161117409876,
death,&&&&&&&&&&&&&,right,care.vice,idexpressible,,,,,,,,,,,,,,,0,220,220,306,,,,,,,,,,,,,AMP,left,0.41700892688186286,0,,,,,,,,,,,,,,left,0,0.41700892688186286,,,,,,,,,,,1074,2019_Mar_14_1406,mf_amp_cond2,3.0.4,59.99161117409876,
gillipede,&&&&&&&&&,None,nonword,reprisols,,,,,,,,,,,,,,,0,221,221,281,,,,,,,,,,,,,AMP,left,0.21696614301868067,0,,,,,,,,,,,,,,left,0,0.21696614301868067,,,,,,,,,,,1074,2019_Mar_14_1406,mf_amp_cond2,3.0.4,59.99161117409876,
ban,&&&&&&&&&,right,loyalty.vice,seachwear,,,,,,,,,,,,,,,0,222,222,21,,,,,,,,,,,,,AMP,left,0.2836342422283451,0,,,,,,,,,,,,,,left,0,0.2836342422283451,,,,,,,,,,,1074,2019_Mar_14_1406,mf_amp_cond2,3.0.4,59.99161117409876,
strong,&&&&&,left,loyalty.virtue,pulge,,,,,,,,,,,,,,,0,223,223,100,,,,,,,,,,,,,AMP,left,0.10028197580618325,1,,,,,,,,,,,,,,left,1,0.10028197580618325,,,,,,,,,,,1074,2019_Mar_14_1406,mf_amp_cond2,3.0.4,59.99161117409876,
critics,&&&&&&&&&,right,loyalty.vice,fangsters,,,,,,,,,,,,,,,0,224,224,131,,,,,,,,,,,,,AMP,left,0.2336419074033529,0,,,,,,,,,,,,,,left,0,0.2336419074033529,,,,,,,,,,,1074,2019_Mar_14_1406,mf_amp_cond2,3.0.4,59.99161117409876,
failure,&&&&&,right,loyalty.vice,atson,,,,,,,,,,,,,,,0,225,225,326,,,,,,,,,,,,,AMP,left,0.7170848089060655,0,,,,,,,,,,,,,,left,0,0.7170848089060655,,,,,,,,,,,1074,2019_Mar_14_1406,mf_amp_cond2,3.0.4,59.99161117409876,
violence,&&&&&&,right,care.vice,gikely,,,,,,,,,,,,,,,0,226,226,235,,,,,,,,,,,,,AMP,left,0.05023543953529952,0,,,,,,,,,,,,,,left,0,0.05023543953529952,,,,,,,,,,,1074,2019_Mar_14_1406,mf_amp_cond2,3.0.4,59.99161117409876,
clean,&&&&&&&,left,sanctity.virtue,menizen,,,,,,,,,,,,,,,0,227,227,64,,,,,,,,,,,,,AMP,left,0.33364902735661417,1,,,,,,,,,,,,,,left,1,0.33364902735661417,,,,,,,,,,,1074,2019_Mar_14_1406,mf_amp_cond2,3.0.4,59.99161117409876,
increase,&&&&&&&&&,left,care.virtue,disregord,,,,,,,,,,,,,,,0,228,228,104,,,,,,,,,,,,,AMP,left,0.11694138354164352,1,,,,,,,,,,,,,,left,1,0.11694138354164352,,,,,,,,,,,1074,2019_Mar_14_1406,mf_amp_cond2,3.0.4,59.99161117409876,
critics,&&&&&&&&&,right,loyalty.vice,metibolic,,,,,,,,,,,,,,,0,229,229,38,,,,,,,,,,,,,AMP,left,0.2502920142990206,0,,,,,,,,,,,,,,left,0,0.2502920142990206,,,,,,,,,,,1074,2019_Mar_14_1406,mf_amp_cond2,3.0.4,59.99161117409876,
intelligence,&&&&&&&&&&,left,loyalty.virtue,elduringly,,,,,,,,,,,,,,,0,230,230,206,,,,,,,,,,,,,AMP,left,0.25028944854989277,1,,,,,,,,,,,,,,left,1,0.25028944854989277,,,,,,,,,,,1074,2019_Mar_14_1406,mf_amp_cond2,3.0.4,59.99161117409876,
allears,&&&&&&&&,None,nonword,lachelor,,,,,,,,,,,,,,,0,231,231,198,,,,,,,,,,,,,AMP,left,0.2336159291955937,0,,,,,,,,,,,,,,left,0,0.2336159291955937,,,,,,,,,,,1074,2019_Mar_14_1406,mf_amp_cond2,3.0.4,59.99161117409876,
intelligence,&&&&&&,left,loyalty.virtue,pumber,,,,,,,,,,,,,,,0,232,232,295,,,,,,,,,,,,,AMP,left,1.2838767055013705,1,,,,,,,,,,,,,,left,1,1.2838767055013705,,,,,,,,,,,1074,2019_Mar_14_1406,mf_amp_cond2,3.0.4,59.99161117409876,
party,&&&&&&&&&&&&&,left,loyalty.virtue,idexpressible,,,,,,,,,,,,,,,0,233,233,203,,,,,,,,,,,,,AMP,left,0.0836421319065721,1,,,,,,,,,,,,,,left,1,0.0836421319065721,,,,,,,,,,,1074,2019_Mar_14_1406,mf_amp_cond2,3.0.4,59.99161117409876,
embrace,&&&&&&&&&&&&,left,authority.virtue,feleological,,,,,,,,,,,,,,,0,234,234,102,,,,,,,,,,,,,AMP,left,0.18360178550483397,1,,,,,,,,,,,,,,left,1,0.18360178550483397,,,,,,,,,,,1074,2019_Mar_14_1406,mf_amp_cond2,3.0.4,59.99161117409876,
arrests,&&&&&,right,authority.vice,saned,,,,,,,,,,,,,,,0,235,235,182,,,,,,,,,,,,,AMP,left,0.1669494335787931,0,,,,,,,,,,,,,,left,0,0.1669494335787931,,,,,,,,,,,1074,2019_Mar_14_1406,mf_amp_cond2,3.0.4,59.99161117409876,
pleasant,&&&&&&,None,control,erdest,,,,,,,,,,,,,,,0,236,236,188,,,,,,,,,,,,,AMP,left,0.25029458004792104,0,,,,,,,,,,,,,,left,0,0.25029458004792104,,,,,,,,,,,1074,2019_Mar_14_1406,mf_amp_cond2,3.0.4,59.99161117409876,
party,&&&&&&&&&,left,loyalty.virtue,chressing,,,,,,,,,,,,,,,0,237,237,315,,,,,,,,,,,,,AMP,left,0.15026565122866486,1,,,,,,,,,,,,,,left,1,0.15026565122866486,,,,,,,,,,,1074,2019_Mar_14_1406,mf_amp_cond2,3.0.4,59.99161117409876,
emassion,&&&&&&&&,None,nonword,pullness,,,,,,,,,,,,,,,0,238,238,59,,,,,,,,,,,,,AMP,left,0.13360367774453152,0,,,,,,,,,,,,,,left,0,0.13360367774453152,,,,,,,,,,,1074,2019_Mar_14_1406,mf_amp_cond2,3.0.4,59.99161117409876,
safety,&&&&&&&&&&&,left,care.virtue,fornicalion,,,,,,,,,,,,,,,0,239,239,148,,,,,,,,,,,,,AMP,left,0.0502562862452578,1,,,,,,,,,,,,,,left,1,0.0502562862452578,,,,,,,,,,,1074,2019_Mar_14_1406,mf_amp_cond2,3.0.4,59.99161117409876,
illegal,&&&&&&,right,fairness.vice,gikely,,,,,,,,,,,,,,,0,240,240,13,,,,,,,,,,,,,AMP,left,0.0835795917764699,0,,,,,,,,,,,,,,left,0,0.0835795917764699,,,,,,,,,,,1074,2019_Mar_14_1406,mf_amp_cond2,3.0.4,59.99161117409876,
gationwide,&&&&&,None,nonword,leact,,,,,,,,,,,,,,,0,241,241,308,,,,,,,,,,,,,AMP,left,0.30031770385994605,0,,,,,,,,,,,,,,left,0,0.30031770385994605,,,,,,,,,,,1074,2019_Mar_14_1406,mf_amp_cond2,3.0.4,59.99161117409876,
gationwide,&&&&&&&,None,nonword,hatigue,,,,,,,,,,,,,,,0,242,242,158,,,,,,,,,,,,,AMP,left,0.18364315820599586,0,,,,,,,,,,,,,,left,0,0.18364315820599586,,,,,,,,,,,1074,2019_Mar_14_1406,mf_amp_cond2,3.0.4,59.99161117409876,
