words,nonwords,mask,corr_ans,category,tweets,topic,AMP_pracloop.thisRepN,AMP_pracloop.thisTrialN,AMP_pracloop.thisN,AMP_pracloop.thisIndex,AMP_trials.thisRepN,AMP_trials.thisTrialN,AMP_trials.thisN,AMP_trials.thisIndex,LDT_pracloop.thisRepN,LDT_pracloop.thisTrialN,LDT_pracloop.thisN,LDT_pracloop.thisIndex,LDT_trials.thisRepN,LDT_trials.thisTrialN,LDT_trials.thisN,LDT_trials.thisIndex,tweet_loop.thisRepN,tweet_loop.thisTrialN,tweet_loop.thisN,tweet_loop.thisIndex,begin_key.keys,begin_key.rt,key_resp_AMP_instr1.keys,key_resp_AMP_instr1.rt,resp_AMP_ready1.keys,resp_AMP_ready1.rt,resp_AMP_prac.keys,resp_AMP_prac.rt,task,keypress,RT,resp_AMP_ready.keys,resp_AMP_ready.rt,resp_AMP.keys,resp_AMP.corr,resp_AMP.rt,corr,AMP_nonword_rating.response,AMP_nonword_rating.rt,AMP_word_rating.response,AMP_word_rating.rt,AMP_random_rating.response,AMP_random_rating.rt,key_resp_LDT_instr.keys,key_resp_LDT_instr.rt,resp_LDT_prac.keys,resp_LDT_prac.rt,resp_LDT_ready.keys,resp_LDT_ready.rt,resp_LDT.keys,resp_LDT.corr,resp_LDT.rt,LDT_rating.response,LDT_rating.rt,key_resp_LDT_instr_2.keys,key_resp_LDT_instr_2.rt,resp_tweets.keys,resp_tweets.rt,participant,date,expName,psychopyVersion,frameRate,
,,,,,,,,,,,,,,,,,,,,,,,,,,,right,1917.9040049263713,,,,,,,,,,,,,,,,,,,,,,,,,,,,,,,,,,,,,1077,2019_Mar_15_1435,mf_amp_cond1,3.0.4,59.98772505447097,
,,,,,,,,,,,,,,,,,,,,,,,,,,,,,right,2.5843106440006522,,,,,,,,,,,,,,,,,,,,,,,,,,,,,,,,,,,1077,2019_Mar_15_1435,mf_amp_cond1,3.0.4,59.98772505447097,
,,,,,,,,,,,,,,,,,,,,,,,,,,,,,,,right,2.4343210676452145,,,,,,,,,,,,,,,,,,,,,,,,,,,,,,,,,1077,2019_Mar_15_1435,mf_amp_cond1,3.0.4,59.98772505447097,
banana,kacket,&&&&&&,,,,,0,0,0,1,,,,,,,,,,,,,,,,,,,,,,,right,1.4506316731421975,AMP_prac,right,1.4506316731421975,,,,,,,,,,,,,,,,,,,,,,,,,,,,1077,2019_Mar_15_1435,mf_amp_cond1,3.0.4,59.98772505447097,
keyboard,senk,&&&&,,,,,0,1,1,2,,,,,,,,,,,,,,,,,,,,,,,left,2.6676334467629204,AMP_prac,left,2.6676334467629204,,,,,,,,,,,,,,,,,,,,,,,,,,,,1077,2019_Mar_15_1435,mf_amp_cond1,3.0.4,59.98772505447097,
car,cemtuper,&&&&&&&&,,,,,0,2,2,0,,,,,,,,,,,,,,,,,,,,,,,left,2.884375751702464,AMP_prac,left,2.884375751702464,,,,,,,,,,,,,,,,,,,,,,,,,,,,1077,2019_Mar_15_1435,mf_amp_cond1,3.0.4,59.98772505447097,
scarf,bisebell,&&&&&&&&,,,,,0,3,3,3,,,,,,,,,,,,,,,,,,,,,,,left,1.3005994400009513,AMP_prac,left,1.3005994400009513,,,,,,,,,,,,,,,,,,,,,,,,,,,,1077,2019_Mar_15_1435,mf_amp_cond1,3.0.4,59.98772505447097,
,,,,,,,,,,,,,,,,,,,,,,,,,,,,,,,,,,,,,,right,3.134450641620788,,,,,,,,,,,,,,,,,,,,,,,,,,1077,2019_Mar_15_1435,mf_amp_cond1,3.0.4,59.98772505447097,
threatened,neutralust,&&&&&&&&&&,right,fairness.vice,,,,,,,0,0,0,0,,,,,,,,,,,,,,,,,,,,,AMP,left,0.8838115917315008,,,left,0,0.8838115917315008,0,,,,,,,,,,,,,,,,,,,,,,1077,2019_Mar_15_1435,mf_amp_cond1,3.0.4,59.98772505447097,
framatic,gikely,&&&&&&,None,nonword,,,,,,,0,1,1,1,,,,,,,,,,,,,,,,,,,,,AMP,left,2.0174616970907664,,,left,0,2.0174616970907664,0,,,,,,,,,,,,,,,,,,,,,,1077,2019_Mar_15_1435,mf_amp_cond1,3.0.4,59.98772505447097,
drumbled,clattening,&&&&&&&&&&,None,nonword,,,,,,,0,2,2,2,,,,,,,,,,,,,,,,,,,,,AMP,left,1.5006459455325967,,,left,0,1.5006459455325967,0,,,,,,,,,,,,,,,,,,,,,,1077,2019_Mar_15_1435,mf_amp_cond1,3.0.4,59.98772505447097,
peaceful,unscothed,&&&&&&&&&,left,authority.virtue,,,,,,,0,3,3,3,,,,,,,,,,,,,,,,,,,,,AMP,left,1.2005994400096824,,,left,1,1.2005994400096824,1,,,,,,,,,,,,,,,,,,,,,,1077,2019_Mar_15_1435,mf_amp_cond1,3.0.4,59.98772505447097,
illegal,mih,&&&,right,fairness.vice,,,,,,,0,4,4,4,,,,,,,,,,,,,,,,,,,,,AMP,right,0.883768293497269,,,right,1,0.883768293497269,1,,,,,,,,,,,,,,,,,,,,,,1077,2019_Mar_15_1435,mf_amp_cond1,3.0.4,59.98772505447097,
progress,smapper,&&&&&&&,left,authority.virtue,,,,,,,0,5,5,5,,,,,,,,,,,,,,,,,,,,,AMP,right,0.7671327908756211,,,right,0,0.7671327908756211,0,,,,,,,,,,,,,,,,,,,,,,1077,2019_Mar_15_1435,mf_amp_cond1,3.0.4,59.98772505447097,
strong,Cunday,&&&&&&,left,loyalty.virtue,,,,,,,0,6,6,6,,,,,,,,,,,,,,,,,,,,,AMP,right,0.800455433287425,,,right,0,0.800455433287425,0,,,,,,,,,,,,,,,,,,,,,,1077,2019_Mar_15_1435,mf_amp_cond1,3.0.4,59.98772505447097,
suicide,menizen,&&&&&&&,right,care.vice,,,,,,,0,7,7,7,,,,,,,,,,,,,,,,,,,,,AMP,left,0.7170963882817887,,,left,0,0.7170963882817887,0,,,,,,,,,,,,,,,,,,,,,,1077,2019_Mar_15_1435,mf_amp_cond1,3.0.4,59.98772505447097,
free,baladroit,&&&&&&&&&,left,fairness.virtue,,,,,,,0,8,8,8,,,,,,,,,,,,,,,,,,,,,AMP,left,1.3506012040161295,,,left,1,1.3506012040161295,1,,,,,,,,,,,,,,,,,,,,,,1077,2019_Mar_15_1435,mf_amp_cond1,3.0.4,59.98772505447097,
nomparisons,rivernoat,&&&&&&&&&,None,nonword,,,,,,,0,9,9,9,,,,,,,,,,,,,,,,,,,,,AMP,right,0.7837901029852219,,,right,0,0.7837901029852219,0,,,,,,,,,,,,,,,,,,,,,,1077,2019_Mar_15_1435,mf_amp_cond1,3.0.4,59.98772505447097,
improve,gationwide,&&&&&&&&&&,left,care.virtue,,,,,,,0,10,10,10,,,,,,,,,,,,,,,,,,,,,AMP,right,0.8838099881104426,,,right,0,0.8838099881104426,0,,,,,,,,,,,,,,,,,,,,,,1077,2019_Mar_15_1435,mf_amp_cond1,3.0.4,59.98772505447097,
scandal,baklara,&&&&&&&,right,sanctity.vice,,,,,,,0,11,11,11,,,,,,,,,,,,,,,,,,,,,AMP,right,0.9670186118310085,,,right,1,0.9670186118310085,1,,,,,,,,,,,,,,,,,,,,,,1077,2019_Mar_15_1435,mf_amp_cond1,3.0.4,59.98772505447097,
win,lorthwhile,&&&&&&&&&&,left,fairness.virtue,,,,,,,0,12,12,12,,,,,,,,,,,,,,,,,,,,,AMP,right,0.5337161752540851,,,right,0,0.5337161752540851,0,,,,,,,,,,,,,,,,,,,,,,1077,2019_Mar_15_1435,mf_amp_cond1,3.0.4,59.98772505447097,
faith,chadows,&&&&&&&,left,sanctity.virtue,,,,,,,0,13,13,13,,,,,,,,,,,,,,,,,,,,,AMP,left,0.7170995955530088,,,left,1,0.7170995955530088,1,,,,,,,,,,,,,,,,,,,,,,1077,2019_Mar_15_1435,mf_amp_cond1,3.0.4,59.98772505447097,
peace,divility,&&&&&&&&,left,care.virtue,,,,,,,0,14,14,14,,,,,,,,,,,,,,,,,,,,,AMP,right,0.8838106295588659,,,right,0,0.8838106295588659,0,,,,,,,,,,,,,,,,,,,,,,1077,2019_Mar_15_1435,mf_amp_cond1,3.0.4,59.98772505447097,
prison,wump,&&&&,right,fairness.vice,,,,,,,0,15,15,15,,,,,,,,,,,,,,,,,,,,,AMP,left,0.7004278507083654,,,left,0,0.7004278507083654,0,,,,,,,,,,,,,,,,,,,,,,1077,2019_Mar_15_1435,mf_amp_cond1,3.0.4,59.98772505447097,
war,erdest,&&&&&&,right,sanctity.vice,,,,,,,0,16,16,16,,,,,,,,,,,,,,,,,,,,,AMP,right,1.483967144653434,,,right,1,1.483967144653434,1,,,,,,,,,,,,,,,,,,,,,,1077,2019_Mar_15_1435,mf_amp_cond1,3.0.4,59.98772505447097,
fair,metibolic,&&&&&&&&&,left,fairness.virtue,,,,,,,0,17,17,17,,,,,,,,,,,,,,,,,,,,,AMP,left,1.0005061082629254,,,left,1,1.0005061082629254,1,,,,,,,,,,,,,,,,,,,,,,1077,2019_Mar_15_1435,mf_amp_cond1,3.0.4,59.98772505447097,
freedom,pullness,&&&&&&&&,left,sanctity.virtue,,,,,,,0,18,18,18,,,,,,,,,,,,,,,,,,,,,AMP,left,1.0171746458363486,,,left,1,1.0171746458363486,1,,,,,,,,,,,,,,,,,,,,,,1077,2019_Mar_15_1435,mf_amp_cond1,3.0.4,59.98772505447097,
police,hasks,&&&&&,right,authority.vice,,,,,,,0,19,19,19,,,,,,,,,,,,,,,,,,,,,AMP,left,0.9504950431582984,,,left,0,0.9504950431582984,0,,,,,,,,,,,,,,,,,,,,,,1077,2019_Mar_15_1435,mf_amp_cond1,3.0.4,59.98772505447097,
bruthfulness,thadowed,&&&&&&&&,None,nonword,,,,,,,0,20,20,20,,,,,,,,,,,,,,,,,,,,,AMP,left,0.5170431474834913,,,left,0,0.5170431474834913,0,,,,,,,,,,,,,,,,,,,,,,1077,2019_Mar_15_1435,mf_amp_cond1,3.0.4,59.98772505447097,
penalty,carvels,&&&&&&&,right,authority.vice,,,,,,,0,21,21,21,,,,,,,,,,,,,,,,,,,,,AMP,left,0.7169398731784895,,,left,0,0.7169398731784895,0,,,,,,,,,,,,,,,,,,,,,,1077,2019_Mar_15_1435,mf_amp_cond1,3.0.4,59.98772505447097,
emassion,esquisiteness,&&&&&&&&&&&&&,None,nonword,,,,,,,0,22,22,22,,,,,,,,,,,,,,,,,,,,,AMP,right,0.41705244859622326,,,right,0,0.41705244859622326,0,,,,,,,,,,,,,,,,,,,,,,1077,2019_Mar_15_1435,mf_amp_cond1,3.0.4,59.98772505447097,
neneficence,dormandi,&&&&&&&&,None,nonword,,,,,,,0,23,23,23,,,,,,,,,,,,,,,,,,,,,AMP,left,1.1338678794418229,,,left,0,1.1338678794418229,0,,,,,,,,,,,,,,,,,,,,,,1077,2019_Mar_15_1435,mf_amp_cond1,3.0.4,59.98772505447097,
drug,atson,&&&&&,right,sanctity.vice,,,,,,,0,24,24,24,,,,,,,,,,,,,,,,,,,,,AMP,left,0.9671639014559332,,,left,0,0.9671639014559332,0,,,,,,,,,,,,,,,,,,,,,,1077,2019_Mar_15_1435,mf_amp_cond1,3.0.4,59.98772505447097,
violations,gaultless,&&&&&&&&&,right,sanctity.vice,,,,,,,0,25,25,25,,,,,,,,,,,,,,,,,,,,,AMP,left,1.0171746458363486,,,left,0,1.0171746458363486,0,,,,,,,,,,,,,,,,,,,,,,1077,2019_Mar_15_1435,mf_amp_cond1,3.0.4,59.98772505447097,
hand,alar,&&&&,left,sanctity.virtue,,,,,,,0,26,26,26,,,,,,,,,,,,,,,,,,,,,AMP,right,0.5003662709932541,,,right,0,0.5003662709932541,0,,,,,,,,,,,,,,,,,,,,,,1077,2019_Mar_15_1435,mf_amp_cond1,3.0.4,59.98772505447097,
ability,sfumatoy,&&&&&&&&,left,authority.virtue,,,,,,,0,27,27,27,,,,,,,,,,,,,,,,,,,,,AMP,left,0.8838215342984768,,,left,1,0.8838215342984768,1,,,,,,,,,,,,,,,,,,,,,,1077,2019_Mar_15_1435,mf_amp_cond1,3.0.4,59.98772505447097,
great,ugeasily,&&&&&&&&,left,loyalty.virtue,,,,,,,0,28,28,28,,,,,,,,,,,,,,,,,,,,,AMP,left,0.8338008473656373,,,left,1,0.8338008473656373,1,,,,,,,,,,,,,,,,,,,,,,1077,2019_Mar_15_1435,mf_amp_cond1,3.0.4,59.98772505447097,
love,fornicalion,&&&&&&&&&&&,left,loyalty.virtue,,,,,,,0,29,29,29,,,,,,,,,,,,,,,,,,,,,AMP,right,0.983831156117958,,,right,0,0.983831156117958,0,,,,,,,,,,,,,,,,,,,,,,1077,2019_Mar_15_1435,mf_amp_cond1,3.0.4,59.98772505447097,
serial,totalestic,&&&&&&&&&&,right,sanctity.vice,,,,,,,0,30,30,30,,,,,,,,,,,,,,,,,,,,,AMP,right,0.7504421230842127,,,right,1,0.7504421230842127,1,,,,,,,,,,,,,,,,,,,,,,1077,2019_Mar_15_1435,mf_amp_cond1,3.0.4,59.98772505447097,
blamed,frojecting,&&&&&&&&&&,right,loyalty.vice,,,,,,,0,31,31,31,,,,,,,,,,,,,,,,,,,,,AMP,right,0.9671642221946968,,,right,1,0.9671642221946968,1,,,,,,,,,,,,,,,,,,,,,,1077,2019_Mar_15_1435,mf_amp_cond1,3.0.4,59.98772505447097,
crime,crinking,&&&&&&&&,right,fairness.vice,,,,,,,0,32,32,32,,,,,,,,,,,,,,,,,,,,,AMP,right,0.683742956010974,,,right,1,0.683742956010974,1,,,,,,,,,,,,,,,,,,,,,,1077,2019_Mar_15_1435,mf_amp_cond1,3.0.4,59.98772505447097,
rejected,antral,&&&&&&,right,authority.vice,,,,,,,0,33,33,33,,,,,,,,,,,,,,,,,,,,,AMP,left,0.6837612374947639,,,left,0,0.6837612374947639,0,,,,,,,,,,,,,,,,,,,,,,1077,2019_Mar_15_1435,mf_amp_cond1,3.0.4,59.98772505447097,
actively,quarterbocks,&&&&&&&&&&&&,left,authority.virtue,,,,,,,0,34,34,34,,,,,,,,,,,,,,,,,,,,,AMP,left,0.7504071637813468,,,left,1,0.7504071637813468,1,,,,,,,,,,,,,,,,,,,,,,1077,2019_Mar_15_1435,mf_amp_cond1,3.0.4,59.98772505447097,
refused,chressing,&&&&&&&&&,right,authority.vice,,,,,,,0,35,35,35,,,,,,,,,,,,,,,,,,,,,AMP,left,0.7504267281474313,,,left,0,0.7504267281474313,0,,,,,,,,,,,,,,,,,,,,,,1077,2019_Mar_15_1435,mf_amp_cond1,3.0.4,59.98772505447097,
fighters,brudent,&&&&&&&,right,authority.vice,,,,,,,0,36,36,36,,,,,,,,,,,,,,,,,,,,,AMP,left,1.117207360061002,,,left,0,1.117207360061002,0,,,,,,,,,,,,,,,,,,,,,,1077,2019_Mar_15_1435,mf_amp_cond1,3.0.4,59.98772505447097,
simplustic,nonobservalt,&&&&&&&&&&&&,None,nonword,,,,,,,0,37,37,37,,,,,,,,,,,,,,,,,,,,,AMP,left,0.9671645429189084,,,left,0,0.9671645429189084,0,,,,,,,,,,,,,,,,,,,,,,1077,2019_Mar_15_1435,mf_amp_cond1,3.0.4,59.98772505447097,
ensure,asn,&&&,left,fairness.virtue,,,,,,,0,38,38,38,,,,,,,,,,,,,,,,,,,,,AMP,left,1.0838564935984323,,,left,1,1.0838564935984323,1,,,,,,,,,,,,,,,,,,,,,,1077,2019_Mar_15_1435,mf_amp_cond1,3.0.4,59.98772505447097,
growth,uller,&&&&&,left,care.virtue,,,,,,,0,39,39,39,,,,,,,,,,,,,,,,,,,,,AMP,left,0.6337376640149159,,,left,1,0.6337376640149159,1,,,,,,,,,,,,,,,,,,,,,,1077,2019_Mar_15_1435,mf_amp_cond1,3.0.4,59.98772505447097,
unpleasant,sliptery,&&&&&&&&,None,control,,,,,,,0,40,40,40,,,,,,,,,,,,,,,,,,,,,AMP,left,1.2172285280830692,,,left,0,1.2172285280830692,0,,,,,,,,,,,,,,,,,,,,,,1077,2019_Mar_15_1435,mf_amp_cond1,3.0.4,59.98772505447097,
increase,reprisols,&&&&&&&&&,left,care.virtue,,,,,,,0,41,41,41,,,,,,,,,,,,,,,,,,,,,AMP,right,0.5003717233630596,,,right,0,0.5003717233630596,0,,,,,,,,,,,,,,,,,,,,,,1077,2019_Mar_15_1435,mf_amp_cond1,3.0.4,59.98772505447097,
corruption,ilportation,&&&&&&&&&&&,right,sanctity.vice,,,,,,,0,42,42,42,,,,,,,,,,,,,,,,,,,,,AMP,left,0.600407644873485,,,left,0,0.600407644873485,0,,,,,,,,,,,,,,,,,,,,,,1077,2019_Mar_15_1435,mf_amp_cond1,3.0.4,59.98772505447097,
killed,unreflectuve,&&&&&&&&&&&&,right,care.vice,,,,,,,0,43,43,43,,,,,,,,,,,,,,,,,,,,,AMP,left,0.650407163775526,,,left,0,0.650407163775526,0,,,,,,,,,,,,,,,,,,,,,,1077,2019_Mar_15_1435,mf_amp_cond1,3.0.4,59.98772505447097,
support,frocessing,&&&&&&&&&&,left,loyalty.virtue,,,,,,,0,44,44,44,,,,,,,,,,,,,,,,,,,,,AMP,right,0.5503757324622711,,,right,0,0.5503757324622711,0,,,,,,,,,,,,,,,,,,,,,,1077,2019_Mar_15_1435,mf_amp_cond1,3.0.4,59.98772505447097,
hope,lempestuous,&&&&&&&&&&&,left,loyalty.virtue,,,,,,,0,45,45,45,,,,,,,,,,,,,,,,,,,,,AMP,left,0.8004708282242063,,,left,1,0.8004708282242063,1,,,,,,,,,,,,,,,,,,,,,,1077,2019_Mar_15_1435,mf_amp_cond1,3.0.4,59.98772505447097,
voter,proached,&&&&&&&&,right,fairness.vice,,,,,,,0,46,46,46,,,,,,,,,,,,,,,,,,,,,AMP,right,0.9838359670393402,,,right,1,0.9838359670393402,1,,,,,,,,,,,,,,,,,,,,,,1077,2019_Mar_15_1435,mf_amp_cond1,3.0.4,59.98772505447097,
abuse,nackers,&&&&&&&,right,sanctity.vice,,,,,,,0,47,47,47,,,,,,,,,,,,,,,,,,,,,AMP,left,0.6504337841615779,,,left,0,0.6504337841615779,0,,,,,,,,,,,,,,,,,,,,,,1077,2019_Mar_15_1435,mf_amp_cond1,3.0.4,59.98772505447097,
shot,gusinesslike,&&&&&&&&&&&&,right,care.vice,,,,,,,0,48,48,48,,,,,,,,,,,,,,,,,,,,,AMP,right,0.7337649258697638,,,right,1,0.7337649258697638,1,,,,,,,,,,,,,,,,,,,,,,1077,2019_Mar_15_1435,mf_amp_cond1,3.0.4,59.98772505447097,
promote,lursuer,&&&&&&&,left,sanctity.virtue,,,,,,,0,49,49,49,,,,,,,,,,,,,,,,,,,,,AMP,left,1.0505322475655703,,,left,1,1.0505322475655703,1,,,,,,,,,,,,,,,,,,,,,,1077,2019_Mar_15_1435,mf_amp_cond1,3.0.4,59.98772505447097,
protect,framo,&&&&&,left,fairness.virtue,,,,,,,0,50,50,50,,,,,,,,,,,,,,,,,,,,,AMP,left,0.9504972882568836,,,left,1,0.9504972882568836,1,,,,,,,,,,,,,,,,,,,,,,1077,2019_Mar_15_1435,mf_amp_cond1,3.0.4,59.98772505447097,
strength,mightingale,&&&&&&&&&&&,left,sanctity.virtue,,,,,,,0,51,51,51,,,,,,,,,,,,,,,,,,,,,AMP,right,0.43369019631063566,,,right,0,0.43369019631063566,0,,,,,,,,,,,,,,,,,,,,,,1077,2019_Mar_15_1435,mf_amp_cond1,3.0.4,59.98772505447097,
sharing,imebreaker,&&&&&&&&&&,left,loyalty.virtue,,,,,,,0,52,52,52,,,,,,,,,,,,,,,,,,,,,AMP,right,0.5503917688474758,,,right,0,0.5503917688474758,0,,,,,,,,,,,,,,,,,,,,,,1077,2019_Mar_15_1435,mf_amp_cond1,3.0.4,59.98772505447097,
help,papert,&&&&&&,left,care.virtue,,,,,,,0,53,53,53,,,,,,,,,,,,,,,,,,,,,AMP,right,0.5503840713790851,,,right,0,0.5503840713790851,0,,,,,,,,,,,,,,,,,,,,,,1077,2019_Mar_15_1435,mf_amp_cond1,3.0.4,59.98772505447097,
victim,Daptist,&&&&&&&,right,care.vice,,,,,,,0,54,54,54,,,,,,,,,,,,,,,,,,,,,AMP,left,0.7004134179587709,,,left,0,0.7004134179587709,0,,,,,,,,,,,,,,,,,,,,,,1077,2019_Mar_15_1435,mf_amp_cond1,3.0.4,59.98772505447097,
health,gournful,&&&&&&&&,left,care.virtue,,,,,,,0,55,55,55,,,,,,,,,,,,,,,,,,,,,AMP,right,0.8338348444958683,,,right,0,0.8338348444958683,0,,,,,,,,,,,,,,,,,,,,,,1077,2019_Mar_15_1435,mf_amp_cond1,3.0.4,59.98772505447097,
pleasant,abointment,&&&&&&&&&&,None,control,,,,,,,0,56,56,56,,,,,,,,,,,,,,,,,,,,,AMP,right,0.6837609167705523,,,right,0,0.6837609167705523,0,,,,,,,,,,,,,,,,,,,,,,1077,2019_Mar_15_1435,mf_amp_cond1,3.0.4,59.98772505447097,
black,tenuflect,&&&&&&&&&,right,loyalty.vice,,,,,,,0,57,57,57,,,,,,,,,,,,,,,,,,,,,AMP,left,0.767118037401815,,,left,0,0.767118037401815,0,,,,,,,,,,,,,,,,,,,,,,1077,2019_Mar_15_1435,mf_amp_cond1,3.0.4,59.98772505447097,
credit,aubos,&&&&&,left,fairness.virtue,,,,,,,0,58,58,58,,,,,,,,,,,,,,,,,,,,,AMP,right,1.300597194902366,,,right,0,1.300597194902366,0,,,,,,,,,,,,,,,,,,,,,,1077,2019_Mar_15_1435,mf_amp_cond1,3.0.4,59.98772505447097,
groups,juck,&&&&,right,loyalty.vice,,,,,,,0,59,59,59,,,,,,,,,,,,,,,,,,,,,AMP,right,1.2172432815568754,,,right,1,1.2172432815568754,1,,,,,,,,,,,,,,,,,,,,,,1077,2019_Mar_15_1435,mf_amp_cond1,3.0.4,59.98772505447097,
ban,idexpressible,&&&&&&&&&&&&&,right,loyalty.vice,,,,,,,0,60,60,60,,,,,,,,,,,,,,,,,,,,,AMP,left,0.9505223050073255,,,left,0,0.9505223050073255,0,,,,,,,,,,,,,,,,,,,,,,1077,2019_Mar_15_1435,mf_amp_cond1,3.0.4,59.98772505447097,
clean,Loorish,&&&&&&&,left,sanctity.virtue,,,,,,,0,61,61,61,,,,,,,,,,,,,,,,,,,,,AMP,right,1.133882632915629,,,right,0,1.133882632915629,0,,,,,,,,,,,,,,,,,,,,,,1077,2019_Mar_15_1435,mf_amp_cond1,3.0.4,59.98772505447097,
trust,hatigue,&&&&&&&,left,authority.virtue,,,,,,,0,62,62,62,,,,,,,,,,,,,,,,,,,,,AMP,left,0.9171400072518736,,,left,1,0.9171400072518736,1,,,,,,,,,,,,,,,,,,,,,,1077,2019_Mar_15_1435,mf_amp_cond1,3.0.4,59.98772505447097,
slending,glacenta,&&&&&&&&,None,nonword,,,,,,,0,63,63,63,,,,,,,,,,,,,,,,,,,,,AMP,right,0.7837827262555948,,,right,0,0.7837827262555948,0,,,,,,,,,,,,,,,,,,,,,,1077,2019_Mar_15_1435,mf_amp_cond1,3.0.4,59.98772505447097,
attacks,sowntrodden,&&&&&&&&&&&,right,care.vice,,,,,,,0,64,64,64,,,,,,,,,,,,,,,,,,,,,AMP,left,0.9671610149234766,,,left,0,0.9671610149234766,0,,,,,,,,,,,,,,,,,,,,,,1077,2019_Mar_15_1435,mf_amp_cond1,3.0.4,59.98772505447097,
arrests,bycled,&&&&&&,right,authority.vice,,,,,,,0,65,65,65,,,,,,,,,,,,,,,,,,,,,AMP,right,0.8504658569290768,,,right,1,0.8504658569290768,1,,,,,,,,,,,,,,,,,,,,,,1077,2019_Mar_15_1435,mf_amp_cond1,3.0.4,59.98772505447097,
perfect,precificity,&&&&&&&&&&&,left,sanctity.virtue,,,,,,,0,66,66,66,,,,,,,,,,,,,,,,,,,,,AMP,left,0.8171329512406373,,,left,1,0.8171329512406373,1,,,,,,,,,,,,,,,,,,,,,,1077,2019_Mar_15_1435,mf_amp_cond1,3.0.4,59.98772505447097,
edancipation,ronviolence,&&&&&&&&&&&,None,nonword,,,,,,,0,67,67,67,,,,,,,,,,,,,,,,,,,,,AMP,left,0.5337206654512556,,,left,0,0.5337206654512556,0,,,,,,,,,,,,,,,,,,,,,,1077,2019_Mar_15_1435,mf_amp_cond1,3.0.4,59.98772505447097,
officers,fangsters,&&&&&&&&&,right,authority.vice,,,,,,,0,68,68,68,,,,,,,,,,,,,,,,,,,,,AMP,left,1.2172298109944677,,,left,0,1.2172298109944677,0,,,,,,,,,,,,,,,,,,,,,,1077,2019_Mar_15_1435,mf_amp_cond1,3.0.4,59.98772505447097,
thabbily,ecgagement,&&&&&&&&&&,None,nonword,,,,,,,0,69,69,69,,,,,,,,,,,,,,,,,,,,,AMP,right,0.5337431163934525,,,right,0,0.5337431163934525,0,,,,,,,,,,,,,,,,,,,,,,1077,2019_Mar_15_1435,mf_amp_cond1,3.0.4,59.98772505447097,
safety,reelectiob,&&&&&&&&&&,left,care.virtue,,,,,,,0,70,70,70,,,,,,,,,,,,,,,,,,,,,AMP,right,0.9338309957674937,,,right,0,0.9338309957674937,0,,,,,,,,,,,,,,,,,,,,,,1077,2019_Mar_15_1435,mf_amp_cond1,3.0.4,59.98772505447097,
interests,infet,&&&&&,left,fairness.virtue,,,,,,,0,71,71,71,,,,,,,,,,,,,,,,,,,,,AMP,right,0.7337395883805584,,,right,0,0.7337395883805584,0,,,,,,,,,,,,,,,,,,,,,,1077,2019_Mar_15_1435,mf_amp_cond1,3.0.4,59.98772505447097,
terrorist,blunderints,&&&&&&&&&&&,right,loyalty.vice,,,,,,,0,72,72,72,,,,,,,,,,,,,,,,,,,,,AMP,left,0.4503706008254085,,,left,0,0.4503706008254085,0,,,,,,,,,,,,,,,,,,,,,,1077,2019_Mar_15_1435,mf_amp_cond1,3.0.4,59.98772505447097,
terrorists,tracious,&&&&&&&&,right,fairness.vice,,,,,,,0,73,73,73,,,,,,,,,,,,,,,,,,,,,AMP,left,2.067492326590582,,,left,0,2.067492326590582,0,,,,,,,,,,,,,,,,,,,,,,1077,2019_Mar_15_1435,mf_amp_cond1,3.0.4,59.98772505447097,
embrace,tomedians,&&&&&&&&&,left,authority.virtue,,,,,,,0,74,74,74,,,,,,,,,,,,,,,,,,,,,AMP,right,0.9504963260696968,,,right,0,0.9504963260696968,0,,,,,,,,,,,,,,,,,,,,,,1077,2019_Mar_15_1435,mf_amp_cond1,3.0.4,59.98772505447097,
men,focomotive,&&&&&&&&&&,right,loyalty.vice,,,,,,,0,75,75,75,,,,,,,,,,,,,,,,,,,,,AMP,right,1.4171509119914845,,,right,1,1.4171509119914845,1,,,,,,,,,,,,,,,,,,,,,,1077,2019_Mar_15_1435,mf_amp_cond1,3.0.4,59.98772505447097,
torture,rorroborated,&&&&&&&&&&&&,right,care.vice,,,,,,,0,76,76,76,,,,,,,,,,,,,,,,,,,,,AMP,left,0.7171146697655786,,,left,0,0.7171146697655786,0,,,,,,,,,,,,,,,,,,,,,,1077,2019_Mar_15_1435,mf_amp_cond1,3.0.4,59.98772505447097,
violence,mecan,&&&&&,right,care.vice,,,,,,,0,77,77,77,,,,,,,,,,,,,,,,,,,,,AMP,right,0.9838324390439084,,,right,1,0.9838324390439084,1,,,,,,,,,,,,,,,,,,,,,,1077,2019_Mar_15_1435,mf_amp_cond1,3.0.4,59.98772505447097,
intelligence,elduringly,&&&&&&&&&&,left,loyalty.virtue,,,,,,,0,78,78,78,,,,,,,,,,,,,,,,,,,,,AMP,right,0.7837763116840506,,,right,0,0.7837763116840506,0,,,,,,,,,,,,,,,,,,,,,,1077,2019_Mar_15_1435,mf_amp_cond1,3.0.4,59.98772505447097,
praise,iptervention,&&&&&&&&&&&&,left,authority.virtue,,,,,,,0,79,79,79,,,,,,,,,,,,,,,,,,,,,AMP,right,1.5006584538932657,,,right,0,1.5006584538932657,0,,,,,,,,,,,,,,,,,,,,,,1077,2019_Mar_15_1435,mf_amp_cond1,3.0.4,59.98772505447097,
failure,chared,&&&&&&,right,loyalty.vice,,,,,,,0,80,80,80,,,,,,,,,,,,,,,,,,,,,AMP,right,1.8839360340643907,,,right,1,1.8839360340643907,1,,,,,,,,,,,,,,,,,,,,,,1077,2019_Mar_15_1435,mf_amp_cond1,3.0.4,59.98772505447097,
fraud,cromiscuity,&&&&&&&&&&&,right,fairness.vice,,,,,,,0,81,81,81,,,,,,,,,,,,,,,,,,,,,AMP,right,1.3171797774848528,,,right,1,1.3171797774848528,1,,,,,,,,,,,,,,,,,,,,,,1077,2019_Mar_15_1435,mf_amp_cond1,3.0.4,59.98772505447097,
free,lursuer,&&&&&&&,left,fairness.virtue,,,,,,,0,82,82,82,,,,,,,,,,,,,,,,,,,,,AMP,left,1.1005555003212066,,,left,1,1.1005555003212066,1,,,,,,,,,,,,,,,,,,,,,,1077,2019_Mar_15_1435,mf_amp_cond1,3.0.4,59.98772505447097,
suicide,frojecting,&&&&&&&&&&,right,care.vice,,,,,,,0,83,83,83,,,,,,,,,,,,,,,,,,,,,AMP,right,1.3172634874063078,,,right,1,1.3172634874063078,1,,,,,,,,,,,,,,,,,,,,,,1077,2019_Mar_15_1435,mf_amp_cond1,3.0.4,59.98772505447097,
abuse,baklara,&&&&&&&,right,sanctity.vice,,,,,,,0,84,84,84,,,,,,,,,,,,,,,,,,,,,AMP,right,1.9174238512350712,,,right,1,1.9174238512350712,1,,,,,,,,,,,,,,,,,,,,,,1077,2019_Mar_15_1435,mf_amp_cond1,3.0.4,59.98772505447097,
help,uller,&&&&&,left,care.virtue,,,,,,,0,85,85,85,,,,,,,,,,,,,,,,,,,,,AMP,right,0.8671501101634931,,,right,0,0.8671501101634931,0,,,,,,,,,,,,,,,,,,,,,,1077,2019_Mar_15_1435,mf_amp_cond1,3.0.4,59.98772505447097,
freedom,mecan,&&&&&,left,sanctity.virtue,,,,,,,0,86,86,86,,,,,,,,,,,,,,,,,,,,,AMP,right,0.9838305146695348,,,right,0,0.9838305146695348,0,,,,,,,,,,,,,,,,,,,,,,1077,2019_Mar_15_1435,mf_amp_cond1,3.0.4,59.98772505447097,
fraud,fornicalion,&&&&&&&&&&&,right,fairness.vice,,,,,,,0,87,87,87,,,,,,,,,,,,,,,,,,,,,AMP,left,0.4670529296854511,,,left,0,0.4670529296854511,0,,,,,,,,,,,,,,,,,,,,,,1077,2019_Mar_15_1435,mf_amp_cond1,3.0.4,59.98772505447097,
prison,lempestuous,&&&&&&&&&&&,right,fairness.vice,,,,,,,0,88,88,88,,,,,,,,,,,,,,,,,,,,,AMP,right,0.9171688727365108,,,right,1,0.9171688727365108,1,,,,,,,,,,,,,,,,,,,,,,1077,2019_Mar_15_1435,mf_amp_cond1,3.0.4,59.98772505447097,
clean,fangsters,&&&&&&&&&,left,sanctity.virtue,,,,,,,0,89,89,89,,,,,,,,,,,,,,,,,,,,,AMP,right,1.2672386310150614,,,right,0,1.2672386310150614,0,,,,,,,,,,,,,,,,,,,,,,1077,2019_Mar_15_1435,mf_amp_cond1,3.0.4,59.98772505447097,
interests,thadowed,&&&&&&&&,left,fairness.virtue,,,,,,,0,90,90,90,,,,,,,,,,,,,,,,,,,,,AMP,right,1.0505210221017478,,,right,0,1.0505210221017478,0,,,,,,,,,,,,,,,,,,,,,,1077,2019_Mar_15_1435,mf_amp_cond1,3.0.4,59.98772505447097,
unpleasant,gusinesslike,&&&&&&&&&&&&,None,control,,,,,,,0,91,91,91,,,,,,,,,,,,,,,,,,,,,AMP,right,0.8838112710072892,,,right,0,0.8838112710072892,0,,,,,,,,,,,,,,,,,,,,,,1077,2019_Mar_15_1435,mf_amp_cond1,3.0.4,59.98772505447097,
police,unreflectuve,&&&&&&&&&&&&,right,authority.vice,,,,,,,0,92,92,92,,,,,,,,,,,,,,,,,,,,,AMP,left,1.4173192940070294,,,left,0,1.4173192940070294,0,,,,,,,,,,,,,,,,,,,,,,1077,2019_Mar_15_1435,mf_amp_cond1,3.0.4,59.98772505447097,
health,chared,&&&&&&,left,care.virtue,,,,,,,0,93,93,93,,,,,,,,,,,,,,,,,,,,,AMP,left,1.2172233964374755,,,left,1,1.2172233964374755,1,,,,,,,,,,,,,,,,,,,,,,1077,2019_Mar_15_1435,mf_amp_cond1,3.0.4,59.98772505447097,
thabbily,Daptist,&&&&&&&,None,nonword,,,,,,,0,94,94,94,,,,,,,,,,,,,,,,,,,,,AMP,left,0.9004952035174938,,,left,0,0.9004952035174938,0,,,,,,,,,,,,,,,,,,,,,,1077,2019_Mar_15_1435,mf_amp_cond1,3.0.4,59.98772505447097,
pleasant,focomotive,&&&&&&&&&&,None,control,,,,,,,0,95,95,95,,,,,,,,,,,,,,,,,,,,,AMP,left,0.7171082552085863,,,left,0,0.7171082552085863,0,,,,,,,,,,,,,,,,,,,,,,1077,2019_Mar_15_1435,mf_amp_cond1,3.0.4,59.98772505447097,
penalty,nonobservalt,&&&&&&&&&&&&,right,authority.vice,,,,,,,0,96,96,96,,,,,,,,,,,,,,,,,,,,,AMP,left,1.200562556332443,,,left,0,1.200562556332443,0,,,,,,,,,,,,,,,,,,,,,,1077,2019_Mar_15_1435,mf_amp_cond1,3.0.4,59.98772505447097,
nomparisons,crinking,&&&&&&&&,None,nonword,,,,,,,0,97,97,97,,,,,,,,,,,,,,,,,,,,,AMP,right,0.5503843921032967,,,right,0,0.5503843921032967,0,,,,,,,,,,,,,,,,,,,,,,1077,2019_Mar_15_1435,mf_amp_cond1,3.0.4,59.98772505447097,
killed,gaultless,&&&&&&&&&,right,care.vice,,,,,,,0,98,98,98,,,,,,,,,,,,,,,,,,,,,AMP,left,0.46705357114842627,,,left,0,0.46705357114842627,0,,,,,,,,,,,,,,,,,,,,,,1077,2019_Mar_15_1435,mf_amp_cond1,3.0.4,59.98772505447097,
ensure,blunderints,&&&&&&&&&&&,left,fairness.virtue,,,,,,,0,99,99,99,,,,,,,,,,,,,,,,,,,,,AMP,right,0.4170136405446101,,,right,0,0.4170136405446101,0,,,,,,,,,,,,,,,,,,,,,,1077,2019_Mar_15_1435,mf_amp_cond1,3.0.4,59.98772505447097,
fighters,alar,&&&&,right,authority.vice,,,,,,,0,100,100,100,,,,,,,,,,,,,,,,,,,,,AMP,right,0.6837570680363569,,,right,1,0.6837570680363569,1,,,,,,,,,,,,,,,,,,,,,,1077,2019_Mar_15_1435,mf_amp_cond1,3.0.4,59.98772505447097,
failure,divility,&&&&&&&&,right,loyalty.vice,,,,,,,0,101,101,101,,,,,,,,,,,,,,,,,,,,,AMP,left,0.8171252537867986,,,left,0,0.8171252537867986,0,,,,,,,,,,,,,,,,,,,,,,1077,2019_Mar_15_1435,mf_amp_cond1,3.0.4,59.98772505447097,
serial,ilportation,&&&&&&&&&&&,right,sanctity.vice,,,,,,,0,102,102,102,,,,,,,,,,,,,,,,,,,,,AMP,left,0.6004204739729175,,,left,0,0.6004204739729175,0,,,,,,,,,,,,,,,,,,,,,,1077,2019_Mar_15_1435,mf_amp_cond1,3.0.4,59.98772505447097,
strength,sowntrodden,&&&&&&&&&&&,left,sanctity.virtue,,,,,,,0,103,103,103,,,,,,,,,,,,,,,,,,,,,AMP,right,0.3670327238360187,,,right,0,0.3670327238360187,0,,,,,,,,,,,,,,,,,,,,,,1077,2019_Mar_15_1435,mf_amp_cond1,3.0.4,59.98772505447097,
arrests,tenuflect,&&&&&&&&&,right,authority.vice,,,,,,,0,104,104,104,,,,,,,,,,,,,,,,,,,,,AMP,left,1.1172102466080105,,,left,0,1.1172102466080105,0,,,,,,,,,,,,,,,,,,,,,,1077,2019_Mar_15_1435,mf_amp_cond1,3.0.4,59.98772505447097,
illegal,wump,&&&&,right,fairness.vice,,,,,,,0,105,105,105,,,,,,,,,,,,,,,,,,,,,AMP,right,0.6337456822075183,,,right,1,0.6337456822075183,1,,,,,,,,,,,,,,,,,,,,,,1077,2019_Mar_15_1435,mf_amp_cond1,3.0.4,59.98772505447097,
embrace,papert,&&&&&&,left,authority.virtue,,,,,,,0,106,106,106,,,,,,,,,,,,,,,,,,,,,AMP,left,0.9671751269197557,,,left,1,0.9671751269197557,1,,,,,,,,,,,,,,,,,,,,,,1077,2019_Mar_15_1435,mf_amp_cond1,3.0.4,59.98772505447097,
slending,reelectiob,&&&&&&&&&&,None,nonword,,,,,,,0,107,107,107,,,,,,,,,,,,,,,,,,,,,AMP,right,0.867156845444697,,,right,0,0.867156845444697,0,,,,,,,,,,,,,,,,,,,,,,1077,2019_Mar_15_1435,mf_amp_cond1,3.0.4,59.98772505447097,
threatened,dormandi,&&&&&&&&,right,fairness.vice,,,,,,,0,108,108,108,,,,,,,,,,,,,,,,,,,,,AMP,left,0.6837442389369244,,,left,0,0.6837442389369244,0,,,,,,,,,,,,,,,,,,,,,,1077,2019_Mar_15_1435,mf_amp_cond1,3.0.4,59.98772505447097,
corruption,frocessing,&&&&&&&&&&,right,sanctity.vice,,,,,,,0,109,109,109,,,,,,,,,,,,,,,,,,,,,AMP,left,0.9338393346843077,,,left,0,0.9338393346843077,0,,,,,,,,,,,,,,,,,,,,,,1077,2019_Mar_15_1435,mf_amp_cond1,3.0.4,59.98772505447097,
crime,erdest,&&&&&&,right,fairness.vice,,,,,,,0,110,110,110,,,,,,,,,,,,,,,,,,,,,AMP,left,1.217240394995315,,,left,0,1.217240394995315,0,,,,,,,,,,,,,,,,,,,,,,1077,2019_Mar_15_1435,mf_amp_cond1,3.0.4,59.98772505447097,
black,asn,&&&,right,loyalty.vice,,,,,,,0,111,111,111,,,,,,,,,,,,,,,,,,,,,AMP,right,1.1505444352078484,,,right,1,1.1505444352078484,1,,,,,,,,,,,,,,,,,,,,,,1077,2019_Mar_15_1435,mf_amp_cond1,3.0.4,59.98772505447097,
framatic,quarterbocks,&&&&&&&&&&&&,None,nonword,,,,,,,0,112,112,112,,,,,,,,,,,,,,,,,,,,,AMP,right,0.7337800000677817,,,right,0,0.7337800000677817,0,,,,,,,,,,,,,,,,,,,,,,1077,2019_Mar_15_1435,mf_amp_cond1,3.0.4,59.98772505447097,
actively,idexpressible,&&&&&&&&&&&&&,left,authority.virtue,,,,,,,0,113,113,113,,,,,,,,,,,,,,,,,,,,,AMP,left,0.783779198245611,,,left,1,0.783779198245611,1,,,,,,,,,,,,,,,,,,,,,,1077,2019_Mar_15_1435,mf_amp_cond1,3.0.4,59.98772505447097,
safety,aubos,&&&&&,left,care.virtue,,,,,,,0,114,114,114,,,,,,,,,,,,,,,,,,,,,AMP,right,0.48368939448846504,,,right,0,0.48368939448846504,0,,,,,,,,,,,,,,,,,,,,,,1077,2019_Mar_15_1435,mf_amp_cond1,3.0.4,59.98772505447097,
drug,iptervention,&&&&&&&&&&&&,right,sanctity.vice,,,,,,,0,115,115,115,,,,,,,,,,,,,,,,,,,,,AMP,left,1.0504947224253556,,,left,0,1.0504947224253556,0,,,,,,,,,,,,,,,,,,,,,,1077,2019_Mar_15_1435,mf_amp_cond1,3.0.4,59.98772505447097,
terrorist,unscothed,&&&&&&&&&,right,loyalty.vice,,,,,,,0,116,116,116,,,,,,,,,,,,,,,,,,,,,AMP,left,0.8004406798136188,,,left,0,0.8004406798136188,0,,,,,,,,,,,,,,,,,,,,,,1077,2019_Mar_15_1435,mf_amp_cond1,3.0.4,59.98772505447097,
great,nackers,&&&&&&&,left,loyalty.virtue,,,,,,,0,117,117,117,,,,,,,,,,,,,,,,,,,,,AMP,left,0.8671408090740442,,,left,1,0.8671408090740442,1,,,,,,,,,,,,,,,,,,,,,,1077,2019_Mar_15_1435,mf_amp_cond1,3.0.4,59.98772505447097,
terrorists,clattening,&&&&&&&&&&,right,fairness.vice,,,,,,,0,118,118,118,,,,,,,,,,,,,,,,,,,,,AMP,left,0.900505787532893,,,left,0,0.900505787532893,0,,,,,,,,,,,,,,,,,,,,,,1077,2019_Mar_15_1435,mf_amp_cond1,3.0.4,59.98772505447097,
intelligence,abointment,&&&&&&&&&&,left,loyalty.virtue,,,,,,,0,119,119,119,,,,,,,,,,,,,,,,,,,,,AMP,left,0.6169331379060168,,,left,1,0.6169331379060168,1,,,,,,,,,,,,,,,,,,,,,,1077,2019_Mar_15_1435,mf_amp_cond1,3.0.4,59.98772505447097,
violations,juck,&&&&,right,sanctity.vice,,,,,,,0,120,120,120,,,,,,,,,,,,,,,,,,,,,AMP,right,0.417027752569993,,,right,1,0.417027752569993,1,,,,,,,,,,,,,,,,,,,,,,1077,2019_Mar_15_1435,mf_amp_cond1,3.0.4,59.98772505447097,
fair,tracious,&&&&&&&&,left,fairness.virtue,,,,,,,0,121,121,121,,,,,,,,,,,,,,,,,,,,,AMP,right,0.8504690642148489,,,right,0,0.8504690642148489,0,,,,,,,,,,,,,,,,,,,,,,1077,2019_Mar_15_1435,mf_amp_cond1,3.0.4,59.98772505447097,
violence,cromiscuity,&&&&&&&&&&&,right,care.vice,,,,,,,0,122,122,122,,,,,,,,,,,,,,,,,,,,,AMP,right,0.8004589612974087,,,right,1,0.8004589612974087,1,,,,,,,,,,,,,,,,,,,,,,1077,2019_Mar_15_1435,mf_amp_cond1,3.0.4,59.98772505447097,
rejected,menizen,&&&&&&&,right,authority.vice,,,,,,,0,123,123,123,,,,,,,,,,,,,,,,,,,,,AMP,right,0.5837291647330858,,,right,1,0.5837291647330858,1,,,,,,,,,,,,,,,,,,,,,,1077,2019_Mar_15_1435,mf_amp_cond1,3.0.4,59.98772505447097,
faith,chressing,&&&&&&&&&,left,sanctity.virtue,,,,,,,0,124,124,124,,,,,,,,,,,,,,,,,,,,,AMP,right,0.5837346170883393,,,right,0,0.5837346170883393,0,,,,,,,,,,,,,,,,,,,,,,1077,2019_Mar_15_1435,mf_amp_cond1,3.0.4,59.98772505447097,
scandal,elduringly,&&&&&&&&&&,right,sanctity.vice,,,,,,,0,125,125,125,,,,,,,,,,,,,,,,,,,,,AMP,left,0.5670619100565091,,,left,0,0.5670619100565091,0,,,,,,,,,,,,,,,,,,,,,,1077,2019_Mar_15_1435,mf_amp_cond1,3.0.4,59.98772505447097,
simplustic,mightingale,&&&&&&&&&&&,None,nonword,,,,,,,0,126,126,126,,,,,,,,,,,,,,,,,,,,,AMP,right,0.48369805414404254,,,right,0,0.48369805414404254,0,,,,,,,,,,,,,,,,,,,,,,1077,2019_Mar_15_1435,mf_amp_cond1,3.0.4,59.98772505447097,
ban,hasks,&&&&&,right,loyalty.vice,,,,,,,0,127,127,127,,,,,,,,,,,,,,,,,,,,,AMP,left,0.35033115130499937,,,left,0,0.35033115130499937,0,,,,,,,,,,,,,,,,,,,,,,1077,2019_Mar_15_1435,mf_amp_cond1,3.0.4,59.98772505447097,
bruthfulness,hatigue,&&&&&&&,None,nonword,,,,,,,0,128,128,128,,,,,,,,,,,,,,,,,,,,,AMP,right,0.7838003662764095,,,right,0,0.7838003662764095,0,,,,,,,,,,,,,,,,,,,,,,1077,2019_Mar_15_1435,mf_amp_cond1,3.0.4,59.98772505447097,
blamed,ecgagement,&&&&&&&&&&,right,loyalty.vice,,,,,,,0,129,129,129,,,,,,,,,,,,,,,,,,,,,AMP,left,0.9838359670538921,,,left,0,0.9838359670538921,0,,,,,,,,,,,,,,,,,,,,,,1077,2019_Mar_15_1435,mf_amp_cond1,3.0.4,59.98772505447097,
love,rivernoat,&&&&&&&&&,left,loyalty.virtue,,,,,,,0,130,130,130,,,,,,,,,,,,,,,,,,,,,AMP,right,0.5337148923426867,,,right,0,0.5337148923426867,0,,,,,,,,,,,,,,,,,,,,,,1077,2019_Mar_15_1435,mf_amp_cond1,3.0.4,59.98772505447097,
perfect,ugeasily,&&&&&&&&,left,sanctity.virtue,,,,,,,0,131,131,131,,,,,,,,,,,,,,,,,,,,,AMP,left,0.9838340426649665,,,left,1,0.9838340426649665,1,,,,,,,,,,,,,,,,,,,,,,1077,2019_Mar_15_1435,mf_amp_cond1,3.0.4,59.98772505447097,
torture,bycled,&&&&&&,right,care.vice,,,,,,,0,132,132,132,,,,,,,,,,,,,,,,,,,,,AMP,right,0.8838064601004589,,,right,1,0.8838064601004589,1,,,,,,,,,,,,,,,,,,,,,,1077,2019_Mar_15_1435,mf_amp_cond1,3.0.4,59.98772505447097,
men,proached,&&&&&&&&,right,loyalty.vice,,,,,,,0,133,133,133,,,,,,,,,,,,,,,,,,,,,AMP,left,0.4503738080820767,,,left,0,0.4503738080820767,0,,,,,,,,,,,,,,,,,,,,,,1077,2019_Mar_15_1435,mf_amp_cond1,3.0.4,59.98772505447097,
victim,imebreaker,&&&&&&&&&&,right,care.vice,,,,,,,0,134,134,134,,,,,,,,,,,,,,,,,,,,,AMP,right,1.1672152178944089,,,right,1,1.1672152178944089,1,,,,,,,,,,,,,,,,,,,,,,1077,2019_Mar_15_1435,mf_amp_cond1,3.0.4,59.98772505447097,
shot,carvels,&&&&&&&,right,care.vice,,,,,,,0,135,135,135,,,,,,,,,,,,,,,,,,,,,AMP,left,0.4836977334198309,,,left,0,0.4836977334198309,0,,,,,,,,,,,,,,,,,,,,,,1077,2019_Mar_15_1435,mf_amp_cond1,3.0.4,59.98772505447097,
drumbled,lorthwhile,&&&&&&&&&&,None,nonword,,,,,,,0,136,136,136,,,,,,,,,,,,,,,,,,,,,AMP,right,0.8337934706214583,,,right,0,0.8337934706214583,0,,,,,,,,,,,,,,,,,,,,,,1077,2019_Mar_15_1435,mf_amp_cond1,3.0.4,59.98772505447097,
trust,glacenta,&&&&&&&&,left,authority.virtue,,,,,,,0,137,137,137,,,,,,,,,,,,,,,,,,,,,AMP,right,0.4503622619085945,,,right,0,0.4503622619085945,0,,,,,,,,,,,,,,,,,,,,,,1077,2019_Mar_15_1435,mf_amp_cond1,3.0.4,59.98772505447097,
edancipation,reprisols,&&&&&&&&&,None,nonword,,,,,,,0,138,138,138,,,,,,,,,,,,,,,,,,,,,AMP,right,0.5337158545298735,,,right,0,0.5337158545298735,0,,,,,,,,,,,,,,,,,,,,,,1077,2019_Mar_15_1435,mf_amp_cond1,3.0.4,59.98772505447097,
credit,mih,&&&,left,fairness.virtue,,,,,,,0,139,139,139,,,,,,,,,,,,,,,,,,,,,AMP,left,0.4670224605652038,,,left,1,0.4670224605652038,1,,,,,,,,,,,,,,,,,,,,,,1077,2019_Mar_15_1435,mf_amp_cond1,3.0.4,59.98772505447097,
officers,neutralust,&&&&&&&&&&,right,authority.vice,,,,,,,0,140,140,140,,,,,,,,,,,,,,,,,,,,,AMP,left,1.0338495979667641,,,left,0,1.0338495979667641,0,,,,,,,,,,,,,,,,,,,,,,1077,2019_Mar_15_1435,mf_amp_cond1,3.0.4,59.98772505447097,
growth,sliptery,&&&&&&&&,left,care.virtue,,,,,,,0,141,141,141,,,,,,,,,,,,,,,,,,,,,AMP,left,0.850466498392052,,,left,1,0.850466498392052,1,,,,,,,,,,,,,,,,,,,,,,1077,2019_Mar_15_1435,mf_amp_cond1,3.0.4,59.98772505447097,
promote,Loorish,&&&&&&&,left,sanctity.virtue,,,,,,,0,142,142,142,,,,,,,,,,,,,,,,,,,,,AMP,right,0.5503850335662719,,,right,0,0.5503850335662719,0,,,,,,,,,,,,,,,,,,,,,,1077,2019_Mar_15_1435,mf_amp_cond1,3.0.4,59.98772505447097,
peace,baladroit,&&&&&&&&&,left,care.virtue,,,,,,,0,143,143,143,,,,,,,,,,,,,,,,,,,,,AMP,right,0.4670304787432542,,,right,0,0.4670304787432542,0,,,,,,,,,,,,,,,,,,,,,,1077,2019_Mar_15_1435,mf_amp_cond1,3.0.4,59.98772505447097,
praise,smapper,&&&&&&&,left,authority.virtue,,,,,,,0,144,144,144,,,,,,,,,,,,,,,,,,,,,AMP,right,0.5170527693117037,,,right,0,0.5170527693117037,0,,,,,,,,,,,,,,,,,,,,,,1077,2019_Mar_15_1435,mf_amp_cond1,3.0.4,59.98772505447097,
voter,atson,&&&&&,right,fairness.vice,,,,,,,0,145,145,145,,,,,,,,,,,,,,,,,,,,,AMP,left,0.5170373743894743,,,left,0,0.5170373743894743,0,,,,,,,,,,,,,,,,,,,,,,1077,2019_Mar_15_1435,mf_amp_cond1,3.0.4,59.98772505447097,
refused,ronviolence,&&&&&&&&&&&,right,authority.vice,,,,,,,0,146,146,146,,,,,,,,,,,,,,,,,,,,,AMP,left,0.5837227501760935,,,left,0,0.5837227501760935,0,,,,,,,,,,,,,,,,,,,,,,1077,2019_Mar_15_1435,mf_amp_cond1,3.0.4,59.98772505447097,
attacks,esquisiteness,&&&&&&&&&&&&&,right,care.vice,,,,,,,0,147,147,147,,,,,,,,,,,,,,,,,,,,,AMP,left,1.2005821207130793,,,left,0,1.2005821207130793,0,,,,,,,,,,,,,,,,,,,,,,1077,2019_Mar_15_1435,mf_amp_cond1,3.0.4,59.98772505447097,
neneficence,gikely,&&&&&&,None,nonword,,,,,,,0,148,148,148,,,,,,,,,,,,,,,,,,,,,AMP,right,0.5503863164631184,,,right,0,0.5503863164631184,0,,,,,,,,,,,,,,,,,,,,,,1077,2019_Mar_15_1435,mf_amp_cond1,3.0.4,59.98772505447097,
win,precificity,&&&&&&&&&&&,left,fairness.virtue,,,,,,,0,149,149,149,,,,,,,,,,,,,,,,,,,,,AMP,right,0.517045071857865,,,right,0,0.517045071857865,0,,,,,,,,,,,,,,,,,,,,,,1077,2019_Mar_15_1435,mf_amp_cond1,3.0.4,59.98772505447097,
hand,tomedians,&&&&&&&&&,left,sanctity.virtue,,,,,,,0,150,150,150,,,,,,,,,,,,,,,,,,,,,AMP,right,0.6504764409473864,,,right,0,0.6504764409473864,0,,,,,,,,,,,,,,,,,,,,,,1077,2019_Mar_15_1435,mf_amp_cond1,3.0.4,59.98772505447097,
sharing,brudent,&&&&&&&,left,loyalty.virtue,,,,,,,0,151,151,151,,,,,,,,,,,,,,,,,,,,,AMP,right,0.650446933999774,,,right,0,0.650446933999774,0,,,,,,,,,,,,,,,,,,,,,,1077,2019_Mar_15_1435,mf_amp_cond1,3.0.4,59.98772505447097,
hope,Cunday,&&&&&&,left,loyalty.virtue,,,,,,,0,152,152,152,,,,,,,,,,,,,,,,,,,,,AMP,right,0.4003505553409923,,,right,0,0.4003505553409923,0,,,,,,,,,,,,,,,,,,,,,,1077,2019_Mar_15_1435,mf_amp_cond1,3.0.4,59.98772505447097,
war,pullness,&&&&&&&&,right,sanctity.vice,,,,,,,0,153,153,153,,,,,,,,,,,,,,,,,,,,,AMP,left,0.48370575161243323,,,left,0,0.48370575161243323,0,,,,,,,,,,,,,,,,,,,,,,1077,2019_Mar_15_1435,mf_amp_cond1,3.0.4,59.98772505447097,
groups,metibolic,&&&&&&&&&,right,loyalty.vice,,,,,,,0,154,154,154,,,,,,,,,,,,,,,,,,,,,AMP,left,0.9171823432989186,,,left,0,0.9171823432989186,0,,,,,,,,,,,,,,,,,,,,,,1077,2019_Mar_15_1435,mf_amp_cond1,3.0.4,59.98772505447097,
protect,gournful,&&&&&&&&,left,fairness.virtue,,,,,,,0,155,155,155,,,,,,,,,,,,,,,,,,,,,AMP,right,0.9671683916385518,,,right,0,0.9671683916385518,0,,,,,,,,,,,,,,,,,,,,,,1077,2019_Mar_15_1435,mf_amp_cond1,3.0.4,59.98772505447097,
progress,framo,&&&&&,left,authority.virtue,,,,,,,0,156,156,156,,,,,,,,,,,,,,,,,,,,,AMP,left,0.6170684849785175,,,left,1,0.6170684849785175,1,,,,,,,,,,,,,,,,,,,,,,1077,2019_Mar_15_1435,mf_amp_cond1,3.0.4,59.98772505447097,
ability,gationwide,&&&&&&&&&&,left,authority.virtue,,,,,,,0,157,157,157,,,,,,,,,,,,,,,,,,,,,AMP,left,1.2505771494325018,,,left,1,1.2505771494325018,1,,,,,,,,,,,,,,,,,,,,,,1077,2019_Mar_15_1435,mf_amp_cond1,3.0.4,59.98772505447097,
emassion,rorroborated,&&&&&&&&&&&&,None,nonword,,,,,,,0,158,158,158,,,,,,,,,,,,,,,,,,,,,AMP,right,0.5003649880818557,,,right,0,0.5003649880818557,0,,,,,,,,,,,,,,,,,,,,,,1077,2019_Mar_15_1435,mf_amp_cond1,3.0.4,59.98772505447097,
increase,totalestic,&&&&&&&&&&,left,care.virtue,,,,,,,0,159,159,159,,,,,,,,,,,,,,,,,,,,,AMP,left,0.6504206343233818,,,left,1,0.6504206343233818,1,,,,,,,,,,,,,,,,,,,,,,1077,2019_Mar_15_1435,mf_amp_cond1,3.0.4,59.98772505447097,
peaceful,infet,&&&&&,left,authority.virtue,,,,,,,0,160,160,160,,,,,,,,,,,,,,,,,,,,,AMP,right,0.43368570612801705,,,right,0,0.43368570612801705,0,,,,,,,,,,,,,,,,,,,,,,1077,2019_Mar_15_1435,mf_amp_cond1,3.0.4,59.98772505447097,
strong,chadows,&&&&&&&,left,loyalty.virtue,,,,,,,0,161,161,161,,,,,,,,,,,,,,,,,,,,,AMP,left,1.433957683184417,,,left,1,1.433957683184417,1,,,,,,,,,,,,,,,,,,,,,,1077,2019_Mar_15_1435,mf_amp_cond1,3.0.4,59.98772505447097,
improve,antral,&&&&&&,left,care.virtue,,,,,,,0,162,162,162,,,,,,,,,,,,,,,,,,,,,AMP,left,0.7172102466138313,,,left,1,0.7172102466138313,1,,,,,,,,,,,,,,,,,,,,,,1077,2019_Mar_15_1435,mf_amp_cond1,3.0.4,59.98772505447097,
support,sfumatoy,&&&&&&&&,left,loyalty.virtue,,,,,,,0,163,163,163,,,,,,,,,,,,,,,,,,,,,AMP,left,0.7002857683546608,,,left,1,0.7002857683546608,1,,,,,,,,,,,,,,,,,,,,,,1077,2019_Mar_15_1435,mf_amp_cond1,3.0.4,59.98772505447097,
simplustic,brudent,&&&&&&&,None,nonword,,,,,,,0,164,164,164,,,,,,,,,,,,,,,,,,,,,AMP,right,1.1839055649470538,,,right,0,1.1839055649470538,0,,,,,,,,,,,,,,,,,,,,,,1077,2019_Mar_15_1435,mf_amp_cond1,3.0.4,59.98772505447097,
edancipation,framo,&&&&&,None,nonword,,,,,,,0,165,165,165,,,,,,,,,,,,,,,,,,,,,AMP,left,0.6337383054633392,,,left,0,0.6337383054633392,0,,,,,,,,,,,,,,,,,,,,,,1077,2019_Mar_15_1435,mf_amp_cond1,3.0.4,59.98772505447097,
unpleasant,gationwide,&&&&&&&&&&,None,control,,,,,,,0,166,166,166,,,,,,,,,,,,,,,,,,,,,AMP,right,0.5837362207385013,,,right,0,0.5837362207385013,0,,,,,,,,,,,,,,,,,,,,,,1077,2019_Mar_15_1435,mf_amp_cond1,3.0.4,59.98772505447097,
drug,menizen,&&&&&&&,right,sanctity.vice,,,,,,,0,167,167,167,,,,,,,,,,,,,,,,,,,,,AMP,left,0.5670606271451106,,,left,0,0.5670606271451106,0,,,,,,,,,,,,,,,,,,,,,,1077,2019_Mar_15_1435,mf_amp_cond1,3.0.4,59.98772505447097,
sharing,ronviolence,&&&&&&&&&&&,left,loyalty.virtue,,,,,,,0,168,168,168,,,,,,,,,,,,,,,,,,,,,AMP,right,0.41701139546057675,,,right,0,0.41701139546057675,0,,,,,,,,,,,,,,,,,,,,,,1077,2019_Mar_15_1435,mf_amp_cond1,3.0.4,59.98772505447097,
praise,chared,&&&&&&,left,authority.virtue,,,,,,,0,169,169,169,,,,,,,,,,,,,,,,,,,,,AMP,left,0.5837217880034586,,,left,1,0.5837217880034586,1,,,,,,,,,,,,,,,,,,,,,,1077,2019_Mar_15_1435,mf_amp_cond1,3.0.4,59.98772505447097,
shot,tracious,&&&&&&&&,right,care.vice,,,,,,,0,170,170,170,,,,,,,,,,,,,,,,,,,,,AMP,right,0.4503571302484488,,,right,1,0.4503571302484488,1,,,,,,,,,,,,,,,,,,,,,,1077,2019_Mar_15_1435,mf_amp_cond1,3.0.4,59.98772505447097,
torture,totalestic,&&&&&&&&&&,right,care.vice,,,,,,,0,171,171,171,,,,,,,,,,,,,,,,,,,,,AMP,left,0.6337514553015353,,,left,0,0.6337514553015353,0,,,,,,,,,,,,,,,,,,,,,,1077,2019_Mar_15_1435,mf_amp_cond1,3.0.4,59.98772505447097,
faith,antral,&&&&&&,left,sanctity.virtue,,,,,,,0,172,172,172,,,,,,,,,,,,,,,,,,,,,AMP,left,0.9338191288406961,,,left,1,0.9338191288406961,1,,,,,,,,,,,,,,,,,,,,,,1077,2019_Mar_15_1435,mf_amp_cond1,3.0.4,59.98772505447097,
emassion,unreflectuve,&&&&&&&&&&&&,None,nonword,,,,,,,0,173,173,173,,,,,,,,,,,,,,,,,,,,,AMP,left,0.8504992126108846,,,left,0,0.8504992126108846,0,,,,,,,,,,,,,,,,,,,,,,1077,2019_Mar_15_1435,mf_amp_cond1,3.0.4,59.98772505447097,
safety,sliptery,&&&&&&&&,left,care.virtue,,,,,,,0,174,174,174,,,,,,,,,,,,,,,,,,,,,AMP,right,0.5503811848320765,,,right,0,0.5503811848320765,0,,,,,,,,,,,,,,,,,,,,,,1077,2019_Mar_15_1435,mf_amp_cond1,3.0.4,59.98772505447097,
increase,elduringly,&&&&&&&&&&,left,care.virtue,,,,,,,0,175,175,175,,,,,,,,,,,,,,,,,,,,,AMP,right,0.5003608186234487,,,right,0,0.5003608186234487,0,,,,,,,,,,,,,,,,,,,,,,1077,2019_Mar_15_1435,mf_amp_cond1,3.0.4,59.98772505447097,
killed,bycled,&&&&&&,right,care.vice,,,,,,,0,176,176,176,,,,,,,,,,,,,,,,,,,,,AMP,right,1.3506217305839527,,,right,1,1.3506217305839527,1,,,,,,,,,,,,,,,,,,,,,,1077,2019_Mar_15_1435,mf_amp_cond1,3.0.4,59.98772505447097,
embrace,uller,&&&&&,left,authority.virtue,,,,,,,0,177,177,177,,,,,,,,,,,,,,,,,,,,,AMP,left,1.1838985089270864,,,left,1,1.1838985089270864,1,,,,,,,,,,,,,,,,,,,,,,1077,2019_Mar_15_1435,mf_amp_cond1,3.0.4,59.98772505447097,
perfect,esquisiteness,&&&&&&&&&&&&&,left,sanctity.virtue,,,,,,,0,178,178,178,,,,,,,,,,,,,,,,,,,,,AMP,right,1.0838738129095873,,,right,0,1.0838738129095873,0,,,,,,,,,,,,,,,,,,,,,,1077,2019_Mar_15_1435,mf_amp_cond1,3.0.4,59.98772505447097,
love,clattening,&&&&&&&&&&,left,loyalty.virtue,,,,,,,0,179,179,179,,,,,,,,,,,,,,,,,,,,,AMP,right,0.4336895548622124,,,right,0,0.4336895548622124,0,,,,,,,,,,,,,,,,,,,,,,1077,2019_Mar_15_1435,mf_amp_cond1,3.0.4,59.98772505447097,
strong,focomotive,&&&&&&&&&&,left,loyalty.virtue,,,,,,,0,180,180,180,,,,,,,,,,,,,,,,,,,,,AMP,right,0.4336885926895775,,,right,0,0.4336885926895775,0,,,,,,,,,,,,,,,,,,,,,,1077,2019_Mar_15_1435,mf_amp_cond1,3.0.4,59.98772505447097,
clean,pullness,&&&&&&&&,left,sanctity.virtue,,,,,,,0,181,181,181,,,,,,,,,,,,,,,,,,,,,AMP,right,0.9671558832778828,,,right,0,0.9671558832778828,0,,,,,,,,,,,,,,,,,,,,,,1077,2019_Mar_15_1435,mf_amp_cond1,3.0.4,59.98772505447097,
thabbily,ilportation,&&&&&&&&&&&,None,nonword,,,,,,,0,182,182,182,,,,,,,,,,,,,,,,,,,,,AMP,left,0.9672254811739549,,,left,0,0.9672254811739549,0,,,,,,,,,,,,,,,,,,,,,,1077,2019_Mar_15_1435,mf_amp_cond1,3.0.4,59.98772505447097,
refused,papert,&&&&&&,right,authority.vice,,,,,,,0,183,183,183,,,,,,,,,,,,,,,,,,,,,AMP,right,1.1005292006448144,,,right,1,1.1005292006448144,1,,,,,,,,,,,,,,,,,,,,,,1077,2019_Mar_15_1435,mf_amp_cond1,3.0.4,59.98772505447097,
intelligence,precificity,&&&&&&&&&&&,left,loyalty.virtue,,,,,,,0,184,184,184,,,,,,,,,,,,,,,,,,,,,AMP,right,0.7504434059956111,,,right,0,0.7504434059956111,0,,,,,,,,,,,,,,,,,,,,,,1077,2019_Mar_15_1435,mf_amp_cond1,3.0.4,59.98772505447097,
strength,fornicalion,&&&&&&&&&&&,left,sanctity.virtue,,,,,,,0,185,185,185,,,,,,,,,,,,,,,,,,,,,AMP,left,1.0171935687685618,,,left,1,1.0171935687685618,1,,,,,,,,,,,,,,,,,,,,,,1077,2019_Mar_15_1435,mf_amp_cond1,3.0.4,59.98772505447097,
great,smapper,&&&&&&&,left,loyalty.virtue,,,,,,,0,186,186,186,,,,,,,,,,,,,,,,,,,,,AMP,right,0.7837836884282297,,,right,0,0.7837836884282297,0,,,,,,,,,,,,,,,,,,,,,,1077,2019_Mar_15_1435,mf_amp_cond1,3.0.4,59.98772505447097,
growth,chressing,&&&&&&&&&,left,care.virtue,,,,,,,0,187,187,187,,,,,,,,,,,,,,,,,,,,,AMP,right,0.48370863814488985,,,right,0,0.48370863814488985,0,,,,,,,,,,,,,,,,,,,,,,1077,2019_Mar_15_1435,mf_amp_cond1,3.0.4,59.98772505447097,
threatened,neutralust,&&&&&&&&&&,right,fairness.vice,,,,,,,0,188,188,188,,,,,,,,,,,,,,,,,,,,,AMP,left,0.8671715989185032,,,left,0,0.8671715989185032,0,,,,,,,,,,,,,,,,,,,,,,1077,2019_Mar_15_1435,mf_amp_cond1,3.0.4,59.98772505447097,
pleasant,imebreaker,&&&&&&&&&&,None,control,,,,,,,0,189,189,189,,,,,,,,,,,,,,,,,,,,,AMP,right,0.8838212135742651,,,right,0,0.8838212135742651,0,,,,,,,,,,,,,,,,,,,,,,1077,2019_Mar_15_1435,mf_amp_cond1,3.0.4,59.98772505447097,
abuse,gikely,&&&&&&,right,sanctity.vice,,,,,,,0,190,190,190,,,,,,,,,,,,,,,,,,,,,AMP,right,0.6170707300771028,,,right,1,0.6170707300771028,1,,,,,,,,,,,,,,,,,,,,,,1077,2019_Mar_15_1435,mf_amp_cond1,3.0.4,59.98772505447097,
attacks,idexpressible,&&&&&&&&&&&&&,right,care.vice,,,,,,,0,191,191,191,,,,,,,,,,,,,,,,,,,,,AMP,left,0.4670365725760348,,,left,0,0.4670365725760348,0,,,,,,,,,,,,,,,,,,,,,,1077,2019_Mar_15_1435,mf_amp_cond1,3.0.4,59.98772505447097,
fraud,lempestuous,&&&&&&&&&&&,right,fairness.vice,,,,,,,0,192,192,192,,,,,,,,,,,,,,,,,,,,,AMP,left,0.500368836816051,,,left,0,0.500368836816051,0,,,,,,,,,,,,,,,,,,,,,,1077,2019_Mar_15_1435,mf_amp_cond1,3.0.4,59.98772505447097,
promote,atson,&&&&&,left,sanctity.virtue,,,,,,,0,193,193,193,,,,,,,,,,,,,,,,,,,,,AMP,left,0.6337418334733229,,,left,1,0.6337418334733229,1,,,,,,,,,,,,,,,,,,,,,,1077,2019_Mar_15_1435,mf_amp_cond1,3.0.4,59.98772505447097,
free,rivernoat,&&&&&&&&&,left,fairness.virtue,,,,,,,0,194,194,194,,,,,,,,,,,,,,,,,,,,,AMP,right,0.36700674489839,,,right,0,0.36700674489839,0,,,,,,,,,,,,,,,,,,,,,,1077,2019_Mar_15_1435,mf_amp_cond1,3.0.4,59.98772505447097,
ability,gaultless,&&&&&&&&&,left,authority.virtue,,,,,,,0,195,195,195,,,,,,,,,,,,,,,,,,,,,AMP,left,0.5669368262751959,,,left,1,0.5669368262751959,1,,,,,,,,,,,,,,,,,,,,,,1077,2019_Mar_15_1435,mf_amp_cond1,3.0.4,59.98772505447097,
corruption,gournful,&&&&&&&&,right,sanctity.vice,,,,,,,0,196,196,196,,,,,,,,,,,,,,,,,,,,,AMP,right,0.31696938013192266,,,right,1,0.31696938013192266,1,,,,,,,,,,,,,,,,,,,,,,1077,2019_Mar_15_1435,mf_amp_cond1,3.0.4,59.98772505447097,
violations,wump,&&&&,right,sanctity.vice,,,,,,,0,197,197,197,,,,,,,,,,,,,,,,,,,,,AMP,left,0.6837605960317887,,,left,0,0.6837605960317887,0,,,,,,,,,,,,,,,,,,,,,,1077,2019_Mar_15_1435,mf_amp_cond1,3.0.4,59.98772505447097,
groups,Cunday,&&&&&&,right,loyalty.vice,,,,,,,0,198,198,198,,,,,,,,,,,,,,,,,,,,,AMP,right,0.48368843231583014,,,right,1,0.48368843231583014,1,,,,,,,,,,,,,,,,,,,,,,1077,2019_Mar_15_1435,mf_amp_cond1,3.0.4,59.98772505447097,
credit,nonobservalt,&&&&&&&&&&&&,left,fairness.virtue,,,,,,,0,199,199,199,,,,,,,,,,,,,,,,,,,,,AMP,left,0.7837862542510265,,,left,1,0.7837862542510265,1,,,,,,,,,,,,,,,,,,,,,,1077,2019_Mar_15_1435,mf_amp_cond1,3.0.4,59.98772505447097,
rejected,frocessing,&&&&&&&&&&,right,authority.vice,,,,,,,0,200,200,200,,,,,,,,,,,,,,,,,,,,,AMP,right,1.3339583246415714,,,right,1,1.3339583246415714,1,,,,,,,,,,,,,,,,,,,,,,1077,2019_Mar_15_1435,mf_amp_cond1,3.0.4,59.98772505447097,
serial,lursuer,&&&&&&&,right,sanctity.vice,,,,,,,0,201,201,201,,,,,,,,,,,,,,,,,,,,,AMP,left,0.43365363335760776,,,left,0,0.43365363335760776,0,,,,,,,,,,,,,,,,,,,,,,1077,2019_Mar_15_1435,mf_amp_cond1,3.0.4,59.98772505447097,
war,reprisols,&&&&&&&&&,right,sanctity.vice,,,,,,,0,202,202,202,,,,,,,,,,,,,,,,,,,,,AMP,left,0.6837666898645693,,,left,0,0.6837666898645693,0,,,,,,,,,,,,,,,,,,,,,,1077,2019_Mar_15_1435,mf_amp_cond1,3.0.4,59.98772505447097,
penalty,tenuflect,&&&&&&&&&,right,authority.vice,,,,,,,0,203,203,203,,,,,,,,,,,,,,,,,,,,,AMP,left,0.48370350651384797,,,left,0,0.48370350651384797,0,,,,,,,,,,,,,,,,,,,,,,1077,2019_Mar_15_1435,mf_amp_cond1,3.0.4,59.98772505447097,
trust,hasks,&&&&&,left,authority.virtue,,,,,,,0,204,204,204,,,,,,,,,,,,,,,,,,,,,AMP,right,0.43371970327279996,,,right,0,0.43371970327279996,0,,,,,,,,,,,,,,,,,,,,,,1077,2019_Mar_15_1435,mf_amp_cond1,3.0.4,59.98772505447097,
framatic,mih,&&&,None,nonword,,,,,,,0,205,205,205,,,,,,,,,,,,,,,,,,,,,AMP,left,0.5337094399728812,,,left,0,0.5337094399728812,0,,,,,,,,,,,,,,,,,,,,,,1077,2019_Mar_15_1435,mf_amp_cond1,3.0.4,59.98772505447097,
slending,abointment,&&&&&&&&&&,None,nonword,,,,,,,0,206,206,206,,,,,,,,,,,,,,,,,,,,,AMP,left,0.5837246745504672,,,left,0,0.5837246745504672,0,,,,,,,,,,,,,,,,,,,,,,1077,2019_Mar_15_1435,mf_amp_cond1,3.0.4,59.98772505447097,
prison,sowntrodden,&&&&&&&&&&&,right,fairness.vice,,,,,,,0,207,207,207,,,,,,,,,,,,,,,,,,,,,AMP,left,0.5170425060350681,,,left,0,0.5170425060350681,0,,,,,,,,,,,,,,,,,,,,,,1077,2019_Mar_15_1435,mf_amp_cond1,3.0.4,59.98772505447097,
scandal,aubos,&&&&&,right,sanctity.vice,,,,,,,0,208,208,208,,,,,,,,,,,,,,,,,,,,,AMP,left,0.7838013284490444,,,left,0,0.7838013284490444,0,,,,,,,,,,,,,,,,,,,,,,1077,2019_Mar_15_1435,mf_amp_cond1,3.0.4,59.98772505447097,
win,ugeasily,&&&&&&&&,left,fairness.virtue,,,,,,,0,209,209,209,,,,,,,,,,,,,,,,,,,,,AMP,left,0.5003774964716285,,,left,1,0.5003774964716285,1,,,,,,,,,,,,,,,,,,,,,,1077,2019_Mar_15_1435,mf_amp_cond1,3.0.4,59.98772505447097,
neneficence,hatigue,&&&&&&&,None,nonword,,,,,,,0,210,210,210,,,,,,,,,,,,,,,,,,,,,AMP,left,0.9838366084877634,,,left,0,0.9838366084877634,0,,,,,,,,,,,,,,,,,,,,,,1077,2019_Mar_15_1435,mf_amp_cond1,3.0.4,59.98772505447097,
hand,asn,&&&,left,sanctity.virtue,,,,,,,0,211,211,211,,,,,,,,,,,,,,,,,,,,,AMP,left,1.2839754835731583,,,left,1,1.2839754835731583,1,,,,,,,,,,,,,,,,,,,,,,1077,2019_Mar_15_1435,mf_amp_cond1,3.0.4,59.98772505447097,
protect,fangsters,&&&&&&&&&,left,fairness.virtue,,,,,,,0,212,212,212,,,,,,,,,,,,,,,,,,,,,AMP,left,1.7006927717593499,,,left,1,1.7006927717593499,1,,,,,,,,,,,,,,,,,,,,,,1077,2019_Mar_15_1435,mf_amp_cond1,3.0.4,59.98772505447097,
fighters,lorthwhile,&&&&&&&&&&,right,authority.vice,,,,,,,0,213,213,213,,,,,,,,,,,,,,,,,,,,,AMP,right,0.3670022547157714,,,right,1,0.3670022547157714,1,,,,,,,,,,,,,,,,,,,,,,1077,2019_Mar_15_1435,mf_amp_cond1,3.0.4,59.98772505447097,
violence,juck,&&&&,right,care.vice,,,,,,,0,214,214,214,,,,,,,,,,,,,,,,,,,,,AMP,right,0.5503969004785176,,,right,1,0.5503969004785176,1,,,,,,,,,,,,,,,,,,,,,,1077,2019_Mar_15_1435,mf_amp_cond1,3.0.4,59.98772505447097,
ensure,nackers,&&&&&&&,left,fairness.virtue,,,,,,,0,215,215,215,,,,,,,,,,,,,,,,,,,,,AMP,left,0.6837631618545856,,,left,1,0.6837631618545856,1,,,,,,,,,,,,,,,,,,,,,,1077,2019_Mar_15_1435,mf_amp_cond1,3.0.4,59.98772505447097,
nomparisons,quarterbocks,&&&&&&&&&&&&,None,nonword,,,,,,,0,216,216,216,,,,,,,,,,,,,,,,,,,,,AMP,left,0.9004727525898488,,,left,0,0.9004727525898488,0,,,,,,,,,,,,,,,,,,,,,,1077,2019_Mar_15_1435,mf_amp_cond1,3.0.4,59.98772505447097,
improve,iptervention,&&&&&&&&&&&&,left,care.virtue,,,,,,,0,217,217,217,,,,,,,,,,,,,,,,,,,,,AMP,right,0.31699535906955134,,,right,0,0.31699535906955134,0,,,,,,,,,,,,,,,,,,,,,,1077,2019_Mar_15_1435,mf_amp_cond1,3.0.4,59.98772505447097,
terrorists,tomedians,&&&&&&&&&,right,fairness.vice,,,,,,,0,218,218,218,,,,,,,,,,,,,,,,,,,,,AMP,left,0.9504860627785092,,,left,0,0.9504860627785092,0,,,,,,,,,,,,,,,,,,,,,,1077,2019_Mar_15_1435,mf_amp_cond1,3.0.4,59.98772505447097,
actively,proached,&&&&&&&&,left,authority.virtue,,,,,,,0,219,219,219,,,,,,,,,,,,,,,,,,,,,AMP,left,1.0171906822215533,,,left,1,1.0171906822215533,1,,,,,,,,,,,,,,,,,,,,,,1077,2019_Mar_15_1435,mf_amp_cond1,3.0.4,59.98772505447097,
support,baladroit,&&&&&&&&&,left,loyalty.virtue,,,,,,,0,220,220,220,,,,,,,,,,,,,,,,,,,,,AMP,left,0.683751294927788,,,left,1,0.683751294927788,1,,,,,,,,,,,,,,,,,,,,,,1077,2019_Mar_15_1435,mf_amp_cond1,3.0.4,59.98772505447097,
voter,mecan,&&&&&,right,fairness.vice,,,,,,,0,221,221,221,,,,,,,,,,,,,,,,,,,,,AMP,left,0.5837224294518819,,,left,0,0.5837224294518819,0,,,,,,,,,,,,,,,,,,,,,,1077,2019_Mar_15_1435,mf_amp_cond1,3.0.4,59.98772505447097,
interests,rorroborated,&&&&&&&&&&&&,left,fairness.virtue,,,,,,,0,222,222,222,,,,,,,,,,,,,,,,,,,,,AMP,right,0.5670609478838742,,,right,0,0.5670609478838742,0,,,,,,,,,,,,,,,,,,,,,,1077,2019_Mar_15_1435,mf_amp_cond1,3.0.4,59.98772505447097,
men,cromiscuity,&&&&&&&&&&&,right,loyalty.vice,,,,,,,0,223,223,223,,,,,,,,,,,,,,,,,,,,,AMP,right,0.6003983437549323,,,right,1,0.6003983437549323,1,,,,,,,,,,,,,,,,,,,,,,1077,2019_Mar_15_1435,mf_amp_cond1,3.0.4,59.98772505447097,
officers,mightingale,&&&&&&&&&&&,right,authority.vice,,,,,,,0,224,224,224,,,,,,,,,,,,,,,,,,,,,AMP,right,0.6837705385987647,,,right,1,0.6837705385987647,1,,,,,,,,,,,,,,,,,,,,,,1077,2019_Mar_15_1435,mf_amp_cond1,3.0.4,59.98772505447097,
bruthfulness,sfumatoy,&&&&&&&&,None,nonword,,,,,,,0,225,225,225,,,,,,,,,,,,,,,,,,,,,AMP,left,1.2172343011770863,,,left,0,1.2172343011770863,0,,,,,,,,,,,,,,,,,,,,,,1077,2019_Mar_15_1435,mf_amp_cond1,3.0.4,59.98772505447097,
peaceful,thadowed,&&&&&&&&,left,authority.virtue,,,,,,,0,226,226,226,,,,,,,,,,,,,,,,,,,,,AMP,left,0.7838006870006211,,,left,1,0.7838006870006211,1,,,,,,,,,,,,,,,,,,,,,,1077,2019_Mar_15_1435,mf_amp_cond1,3.0.4,59.98772505447097,
peace,reelectiob,&&&&&&&&&&,left,care.virtue,,,,,,,0,227,227,227,,,,,,,,,,,,,,,,,,,,,AMP,left,1.2172352633642731,,,left,1,1.2172352633642731,1,,,,,,,,,,,,,,,,,,,,,,1077,2019_Mar_15_1435,mf_amp_cond1,3.0.4,59.98772505447097,
fair,divility,&&&&&&&&,left,fairness.virtue,,,,,,,0,228,228,228,,,,,,,,,,,,,,,,,,,,,AMP,right,0.4336828195810085,,,right,0,0.4336828195810085,0,,,,,,,,,,,,,,,,,,,,,,1077,2019_Mar_15_1435,mf_amp_cond1,3.0.4,59.98772505447097,
black,infet,&&&&&,right,loyalty.vice,,,,,,,0,229,229,229,,,,,,,,,,,,,,,,,,,,,AMP,right,1.533989755960647,,,right,1,1.533989755960647,1,,,,,,,,,,,,,,,,,,,,,,1077,2019_Mar_15_1435,mf_amp_cond1,3.0.4,59.98772505447097,
blamed,glacenta,&&&&&&&&,right,loyalty.vice,,,,,,,0,230,230,230,,,,,,,,,,,,,,,,,,,,,AMP,right,1.1672543466556817,,,right,1,1.1672543466556817,1,,,,,,,,,,,,,,,,,,,,,,1077,2019_Mar_15_1435,mf_amp_cond1,3.0.4,59.98772505447097,
crime,dormandi,&&&&&&&&,right,fairness.vice,,,,,,,0,231,231,231,,,,,,,,,,,,,,,,,,,,,AMP,left,0.6003909670253051,,,left,0,0.6003909670253051,0,,,,,,,,,,,,,,,,,,,,,,1077,2019_Mar_15_1435,mf_amp_cond1,3.0.4,59.98772505447097,
terrorist,gusinesslike,&&&&&&&&&&&&,right,loyalty.vice,,,,,,,0,232,232,232,,,,,,,,,,,,,,,,,,,,,AMP,left,1.0172173026221571,,,left,0,1.0172173026221571,0,,,,,,,,,,,,,,,,,,,,,,1077,2019_Mar_15_1435,mf_amp_cond1,3.0.4,59.98772505447097,
suicide,Loorish,&&&&&&&,right,care.vice,,,,,,,0,233,233,233,,,,,,,,,,,,,,,,,,,,,AMP,left,0.7337751891463995,,,left,0,0.7337751891463995,0,,,,,,,,,,,,,,,,,,,,,,1077,2019_Mar_15_1435,mf_amp_cond1,3.0.4,59.98772505447097,
police,Daptist,&&&&&&&,right,authority.vice,,,,,,,0,234,234,234,,,,,,,,,,,,,,,,,,,,,AMP,left,0.7837958760937909,,,left,0,0.7837958760937909,0,,,,,,,,,,,,,,,,,,,,,,1077,2019_Mar_15_1435,mf_amp_cond1,3.0.4,59.98772505447097,
help,alar,&&&&,left,care.virtue,,,,,,,0,235,235,235,,,,,,,,,,,,,,,,,,,,,AMP,left,0.5003925706550945,,,left,1,0.5003925706550945,1,,,,,,,,,,,,,,,,,,,,,,1077,2019_Mar_15_1435,mf_amp_cond1,3.0.4,59.98772505447097,
illegal,frojecting,&&&&&&&&&&,right,fairness.vice,,,,,,,0,236,236,236,,,,,,,,,,,,,,,,,,,,,AMP,right,0.5503856750146952,,,right,1,0.5503856750146952,1,,,,,,,,,,,,,,,,,,,,,,1077,2019_Mar_15_1435,mf_amp_cond1,3.0.4,59.98772505447097,
victim,erdest,&&&&&&,right,care.vice,,,,,,,0,237,237,237,,,,,,,,,,,,,,,,,,,,,AMP,left,0.7837942724436289,,,left,0,0.7837942724436289,0,,,,,,,,,,,,,,,,,,,,,,1077,2019_Mar_15_1435,mf_amp_cond1,3.0.4,59.98772505447097,
drumbled,blunderints,&&&&&&&&&&&,None,nonword,,,,,,,0,238,238,238,,,,,,,,,,,,,,,,,,,,,AMP,right,1.1672302920924267,,,right,0,1.1672302920924267,0,,,,,,,,,,,,,,,,,,,,,,1077,2019_Mar_15_1435,mf_amp_cond1,3.0.4,59.98772505447097,
ban,metibolic,&&&&&&&&&,right,loyalty.vice,,,,,,,0,239,239,239,,,,,,,,,,,,,,,,,,,,,AMP,left,1.2505765079840785,,,left,0,1.2505765079840785,0,,,,,,,,,,,,,,,,,,,,,,1077,2019_Mar_15_1435,mf_amp_cond1,3.0.4,59.98772505447097,
hope,unscothed,&&&&&&&&&,left,loyalty.virtue,,,,,,,0,240,240,240,,,,,,,,,,,,,,,,,,,,,AMP,right,0.7838022906362312,,,right,0,0.7838022906362312,0,,,,,,,,,,,,,,,,,,,,,,1077,2019_Mar_15_1435,mf_amp_cond1,3.0.4,59.98772505447097,
progress,baklara,&&&&&&&,left,authority.virtue,,,,,,,0,241,241,241,,,,,,,,,,,,,,,,,,,,,AMP,left,0.8504684227664256,,,left,1,0.8504684227664256,1,,,,,,,,,,,,,,,,,,,,,,1077,2019_Mar_15_1435,mf_amp_cond1,3.0.4,59.98772505447097,
failure,ecgagement,&&&&&&&&&&,right,loyalty.vice,,,,,,,0,242,242,242,,,,,,,,,,,,,,,,,,,,,AMP,left,0.9171727214707062,,,left,0,0.9171727214707062,0,,,,,,,,,,,,,,,,,,,,,,1077,2019_Mar_15_1435,mf_amp_cond1,3.0.4,59.98772505447097,
arrests,crinking,&&&&&&&&,right,authority.vice,,,,,,,0,243,243,243,,,,,,,,,,,,,,,,,,,,,AMP,left,1.4006106654705945,,,left,0,1.4006106654705945,0,,,,,,,,,,,,,,,,,,,,,,1077,2019_Mar_15_1435,mf_amp_cond1,3.0.4,59.98772505447097,
freedom,carvels,&&&&&&&,left,sanctity.virtue,,,,,,,0,244,244,244,,,,,,,,,,,,,,,,,,,,,AMP,right,1.8673730158916442,,,right,0,1.8673730158916442,0,,,,,,,,,,,,,,,,,,,,,,1077,2019_Mar_15_1435,mf_amp_cond1,3.0.4,59.98772505447097,
health,chadows,&&&&&&&,left,care.virtue,,,,,,,0,245,245,245,,,,,,,,,,,,,,,,,,,,,AMP,left,0.6837840091611724,,,left,1,0.6837840091611724,1,,,,,,,,,,,,,,,,,,,,,,1077,2019_Mar_15_1435,mf_amp_cond1,3.0.4,59.98772505447097,
ban,frojecting,&&&&&&&&&&,right,loyalty.vice,,,,,,,0,246,246,246,,,,,,,,,,,,,,,,,,,,,AMP,right,0.9504960053309333,,,right,1,0.9504960053309333,1,,,,,,,,,,,,,,,,,,,,,,1077,2019_Mar_15_1435,mf_amp_cond1,3.0.4,59.98772505447097,
progress,idexpressible,&&&&&&&&&&&&&,left,authority.virtue,,,,,,,0,247,247,247,,,,,,,,,,,,,,,,,,,,,AMP,left,0.8838109502830775,,,left,1,0.8838109502830775,1,,,,,,,,,,,,,,,,,,,,,,1077,2019_Mar_15_1435,mf_amp_cond1,3.0.4,59.98772505447097,
arrests,rivernoat,&&&&&&&&&,right,authority.vice,,,,,,,0,248,248,248,,,,,,,,,,,,,,,,,,,,,AMP,right,0.43369532795622945,,,right,1,0.43369532795622945,1,,,,,,,,,,,,,,,,,,,,,,1077,2019_Mar_15_1435,mf_amp_cond1,3.0.4,59.98772505447097,
intelligence,lursuer,&&&&&&&,left,loyalty.virtue,,,,,,,0,249,249,249,,,,,,,,,,,,,,,,,,,,,AMP,left,0.8671324701426784,,,left,1,0.8671324701426784,1,,,,,,,,,,,,,,,,,,,,,,1077,2019_Mar_15_1435,mf_amp_cond1,3.0.4,59.98772505447097,
hope,aubos,&&&&&,left,loyalty.virtue,,,,,,,0,250,250,250,,,,,,,,,,,,,,,,,,,,,AMP,right,0.5837448803795269,,,right,0,0.5837448803795269,0,,,,,,,,,,,,,,,,,,,,,,1077,2019_Mar_15_1435,mf_amp_cond1,3.0.4,59.98772505447097,
embrace,rorroborated,&&&&&&&&&&&&,left,authority.virtue,,,,,,,0,251,251,251,,,,,,,,,,,,,,,,,,,,,AMP,right,0.8671449785324512,,,right,0,0.8671449785324512,0,,,,,,,,,,,,,,,,,,,,,,1077,2019_Mar_15_1435,mf_amp_cond1,3.0.4,59.98772505447097,
hand,Daptist,&&&&&&&,left,sanctity.virtue,,,,,,,0,252,252,252,,,,,,,,,,,,,,,,,,,,,AMP,left,0.4336879512120504,,,left,1,0.4336879512120504,1,,,,,,,,,,,,,,,,,,,,,,1077,2019_Mar_15_1435,mf_amp_cond1,3.0.4,59.98772505447097,
bruthfulness,clattening,&&&&&&&&&&,None,nonword,,,,,,,0,253,253,253,,,,,,,,,,,,,,,,,,,,,AMP,right,0.8671376017882721,,,right,0,0.8671376017882721,0,,,,,,,,,,,,,,,,,,,,,,1077,2019_Mar_15_1435,mf_amp_cond1,3.0.4,59.98772505447097,
penalty,nackers,&&&&&&&,right,authority.vice,,,,,,,0,254,254,254,,,,,,,,,,,,,,,,,,,,,AMP,left,0.8004621685686288,,,left,0,0.8004621685686288,0,,,,,,,,,,,,,,,,,,,,,,1077,2019_Mar_15_1435,mf_amp_cond1,3.0.4,59.98772505447097,
improve,fornicalion,&&&&&&&&&&&,left,care.virtue,,,,,,,0,255,255,255,,,,,,,,,,,,,,,,,,,,,AMP,left,1.0671841073053656,,,left,1,1.0671841073053656,1,,,,,,,,,,,,,,,,,,,,,,1077,2019_Mar_15_1435,mf_amp_cond1,3.0.4,59.98772505447097,
win,cromiscuity,&&&&&&&&&&&,left,fairness.virtue,,,,,,,0,256,256,256,,,,,,,,,,,,,,,,,,,,,AMP,right,0.817130706156604,,,right,0,0.817130706156604,0,,,,,,,,,,,,,,,,,,,,,,1077,2019_Mar_15_1435,mf_amp_cond1,3.0.4,59.98772505447097,
police,atson,&&&&&,right,authority.vice,,,,,,,0,257,257,257,,,,,,,,,,,,,,,,,,,,,AMP,left,0.5504026735870866,,,left,0,0.5504026735870866,0,,,,,,,,,,,,,,,,,,,,,,1077,2019_Mar_15_1435,mf_amp_cond1,3.0.4,59.98772505447097,
peace,menizen,&&&&&&&,left,care.virtue,,,,,,,0,258,258,258,,,,,,,,,,,,,,,,,,,,,AMP,right,0.9004653758456698,,,right,0,0.9004653758456698,0,,,,,,,,,,,,,,,,,,,,,,1077,2019_Mar_15_1435,mf_amp_cond1,3.0.4,59.98772505447097,
officers,neutralust,&&&&&&&&&&,right,authority.vice,,,,,,,0,259,259,259,,,,,,,,,,,,,,,,,,,,,AMP,left,0.6670959071925608,,,left,0,0.6670959071925608,0,,,,,,,,,,,,,,,,,,,,,,1077,2019_Mar_15_1435,mf_amp_cond1,3.0.4,59.98772505447097,
neneficence,mightingale,&&&&&&&&&&&,None,nonword,,,,,,,0,260,260,260,,,,,,,,,,,,,,,,,,,,,AMP,left,1.083874775096774,,,left,0,1.083874775096774,0,,,,,,,,,,,,,,,,,,,,,,1077,2019_Mar_15_1435,mf_amp_cond1,3.0.4,59.98772505447097,
strength,iptervention,&&&&&&&&&&&&,left,sanctity.virtue,,,,,,,0,261,261,261,,,,,,,,,,,,,,,,,,,,,AMP,right,0.8338364481314784,,,right,0,0.8338364481314784,0,,,,,,,,,,,,,,,,,,,,,,1077,2019_Mar_15_1435,mf_amp_cond1,3.0.4,59.98772505447097,
abuse,erdest,&&&&&&,right,sanctity.vice,,,,,,,0,262,262,262,,,,,,,,,,,,,,,,,,,,,AMP,left,0.5503773360978812,,,left,0,0.5503773360978812,0,,,,,,,,,,,,,,,,,,,,,,1077,2019_Mar_15_1435,mf_amp_cond1,3.0.4,59.98772505447097,
sharing,brudent,&&&&&&&,left,loyalty.virtue,,,,,,,0,263,263,263,,,,,,,,,,,,,,,,,,,,,AMP,left,2.3342059263959527,,,left,1,2.3342059263959527,1,,,,,,,,,,,,,,,,,,,,,,1077,2019_Mar_15_1435,mf_amp_cond1,3.0.4,59.98772505447097,
help,quarterbocks,&&&&&&&&&&&&,left,care.virtue,,,,,,,0,264,264,264,,,,,,,,,,,,,,,,,,,,,AMP,right,0.800457036923035,,,right,0,0.800457036923035,0,,,,,,,,,,,,,,,,,,,,,,1077,2019_Mar_15_1435,mf_amp_cond1,3.0.4,59.98772505447097,
crime,dormandi,&&&&&&&&,right,fairness.vice,,,,,,,0,265,265,265,,,,,,,,,,,,,,,,,,,,,AMP,left,0.7004390761867398,,,left,0,0.7004390761867398,0,,,,,,,,,,,,,,,,,,,,,,1077,2019_Mar_15_1435,mf_amp_cond1,3.0.4,59.98772505447097,
interests,sfumatoy,&&&&&&&&,left,fairness.virtue,,,,,,,0,266,266,266,,,,,,,,,,,,,,,,,,,,,AMP,right,0.46703849693585653,,,right,0,0.46703849693585653,0,,,,,,,,,,,,,,,,,,,,,,1077,2019_Mar_15_1435,mf_amp_cond1,3.0.4,59.98772505447097,
fair,divility,&&&&&&&&,left,fairness.virtue,,,,,,,0,267,267,267,,,,,,,,,,,,,,,,,,,,,AMP,right,0.700460564927198,,,right,0,0.700460564927198,0,,,,,,,,,,,,,,,,,,,,,,1077,2019_Mar_15_1435,mf_amp_cond1,3.0.4,59.98772505447097,
support,gournful,&&&&&&&&,left,loyalty.virtue,,,,,,,0,268,268,268,,,,,,,,,,,,,,,,,,,,,AMP,left,1.55065508626285,,,left,1,1.55065508626285,1,,,,,,,,,,,,,,,,,,,,,,1077,2019_Mar_15_1435,mf_amp_cond1,3.0.4,59.98772505447097,
love,tenuflect,&&&&&&&&&,left,loyalty.virtue,,,,,,,0,269,269,269,,,,,,,,,,,,,,,,,,,,,AMP,left,1.3506028076371877,,,left,1,1.3506028076371877,1,,,,,,,,,,,,,,,,,,,,,,1077,2019_Mar_15_1435,mf_amp_cond1,3.0.4,59.98772505447097,
victim,chressing,&&&&&&&&&,right,care.vice,,,,,,,0,270,270,270,,,,,,,,,,,,,,,,,,,,,AMP,right,0.6670862853643484,,,right,1,0.6670862853643484,1,,,,,,,,,,,,,,,,,,,,,,1077,2019_Mar_15_1435,mf_amp_cond1,3.0.4,59.98772505447097,
free,gationwide,&&&&&&&&&&,left,fairness.virtue,,,,,,,0,271,271,271,,,,,,,,,,,,,,,,,,,,,AMP,right,0.9671703160129255,,,right,0,0.9671703160129255,0,,,,,,,,,,,,,,,,,,,,,,1077,2019_Mar_15_1435,mf_amp_cond1,3.0.4,59.98772505447097,
attacks,uller,&&&&&,right,care.vice,,,,,,,0,272,272,272,,,,,,,,,,,,,,,,,,,,,AMP,left,0.9171217257680837,,,left,0,0.9171217257680837,0,,,,,,,,,,,,,,,,,,,,,,1077,2019_Mar_15_1435,mf_amp_cond1,3.0.4,59.98772505447097,
drumbled,antral,&&&&&&,None,nonword,,,,,,,0,273,273,273,,,,,,,,,,,,,,,,,,,,,AMP,right,1.5006475491682068,,,right,0,1.5006475491682068,0,,,,,,,,,,,,,,,,,,,,,,1077,2019_Mar_15_1435,mf_amp_cond1,3.0.4,59.98772505447097,
promote,hasks,&&&&&,left,sanctity.virtue,,,,,,,0,274,274,274,,,,,,,,,,,,,,,,,,,,,AMP,left,1.9674804596725153,,,left,1,1.9674804596725153,1,,,,,,,,,,,,,,,,,,,,,,1077,2019_Mar_15_1435,mf_amp_cond1,3.0.4,59.98772505447097,
illegal,mih,&&&,right,fairness.vice,,,,,,,0,275,275,275,,,,,,,,,,,,,,,,,,,,,AMP,left,0.5170485998678487,,,left,0,0.5170485998678487,0,,,,,,,,,,,,,,,,,,,,,,1077,2019_Mar_15_1435,mf_amp_cond1,3.0.4,59.98772505447097,
ensure,baladroit,&&&&&&&&&,left,fairness.virtue,,,,,,,0,276,276,276,,,,,,,,,,,,,,,,,,,,,AMP,right,1.0171762494865106,,,right,0,1.0171762494865106,0,,,,,,,,,,,,,,,,,,,,,,1077,2019_Mar_15_1435,mf_amp_cond1,3.0.4,59.98772505447097,
drug,baklara,&&&&&&&,right,sanctity.vice,,,,,,,0,277,277,277,,,,,,,,,,,,,,,,,,,,,AMP,right,0.7837888200738234,,,right,1,0.7837888200738234,1,,,,,,,,,,,,,,,,,,,,,,1077,2019_Mar_15_1435,mf_amp_cond1,3.0.4,59.98772505447097,
perfect,hatigue,&&&&&&&,left,sanctity.virtue,,,,,,,0,278,278,278,,,,,,,,,,,,,,,,,,,,,AMP,left,0.850466498392052,,,left,1,0.850466498392052,1,,,,,,,,,,,,,,,,,,,,,,1077,2019_Mar_15_1435,mf_amp_cond1,3.0.4,59.98772505447097,
strong,chared,&&&&&&,left,loyalty.virtue,,,,,,,0,279,279,279,,,,,,,,,,,,,,,,,,,,,AMP,left,0.9005365773919038,,,left,1,0.9005365773919038,1,,,,,,,,,,,,,,,,,,,,,,1077,2019_Mar_15_1435,mf_amp_cond1,3.0.4,59.98772505447097,
blamed,focomotive,&&&&&&&&&&,right,loyalty.vice,,,,,,,0,280,280,280,,,,,,,,,,,,,,,,,,,,,AMP,right,0.5004220776027068,,,right,1,0.5004220776027068,1,,,,,,,,,,,,,,,,,,,,,,1077,2019_Mar_15_1435,mf_amp_cond1,3.0.4,59.98772505447097,
violence,tracious,&&&&&&&&,right,care.vice,,,,,,,0,281,281,281,,,,,,,,,,,,,,,,,,,,,AMP,left,0.883808063736069,,,left,0,0.883808063736069,0,,,,,,,,,,,,,,,,,,,,,,1077,2019_Mar_15_1435,mf_amp_cond1,3.0.4,59.98772505447097,
suicide,unreflectuve,&&&&&&&&&&&&,right,care.vice,,,,,,,0,282,282,282,,,,,,,,,,,,,,,,,,,,,AMP,right,0.8171303854178404,,,right,1,0.8171303854178404,1,,,,,,,,,,,,,,,,,,,,,,1077,2019_Mar_15_1435,mf_amp_cond1,3.0.4,59.98772505447097,
clean,ronviolence,&&&&&&&&&&&,left,sanctity.virtue,,,,,,,0,283,283,283,,,,,,,,,,,,,,,,,,,,,AMP,left,1.2505749043484684,,,left,1,1.2505749043484684,1,,,,,,,,,,,,,,,,,,,,,,1077,2019_Mar_15_1435,mf_amp_cond1,3.0.4,59.98772505447097,
men,elduringly,&&&&&&&&&&,right,loyalty.vice,,,,,,,0,284,284,284,,,,,,,,,,,,,,,,,,,,,AMP,right,0.5669621637498494,,,right,1,0.5669621637498494,1,,,,,,,,,,,,,,,,,,,,,,1077,2019_Mar_15_1435,mf_amp_cond1,3.0.4,59.98772505447097,
voter,alar,&&&&,right,fairness.vice,,,,,,,0,285,285,285,,,,,,,,,,,,,,,,,,,,,AMP,left,0.5337113643472549,,,left,0,0.5337113643472549,0,,,,,,,,,,,,,,,,,,,,,,1077,2019_Mar_15_1435,mf_amp_cond1,3.0.4,59.98772505447097,
rejected,gusinesslike,&&&&&&&&&&&&,right,authority.vice,,,,,,,0,286,286,286,,,,,,,,,,,,,,,,,,,,,AMP,right,0.9671680709143402,,,right,1,0.9671680709143402,1,,,,,,,,,,,,,,,,,,,,,,1077,2019_Mar_15_1435,mf_amp_cond1,3.0.4,59.98772505447097,
torture,gikely,&&&&&&,right,care.vice,,,,,,,0,287,287,287,,,,,,,,,,,,,,,,,,,,,AMP,left,0.6169357037142618,,,left,0,0.6169357037142618,0,,,,,,,,,,,,,,,,,,,,,,1077,2019_Mar_15_1435,mf_amp_cond1,3.0.4,59.98772505447097,
increase,bycled,&&&&&&,left,care.virtue,,,,,,,0,288,288,288,,,,,,,,,,,,,,,,,,,,,AMP,right,1.1839180733222747,,,right,0,1.1839180733222747,0,,,,,,,,,,,,,,,,,,,,,,1077,2019_Mar_15_1435,mf_amp_cond1,3.0.4,59.98772505447097,
pleasant,sowntrodden,&&&&&&&&&&&,None,control,,,,,,,0,289,289,289,,,,,,,,,,,,,,,,,,,,,AMP,left,0.9004756391223054,,,left,0,0.9004756391223054,0,,,,,,,,,,,,,,,,,,,,,,1077,2019_Mar_15_1435,mf_amp_cond1,3.0.4,59.98772505447097,
safety,mecan,&&&&&,left,care.virtue,,,,,,,0,290,290,290,,,,,,,,,,,,,,,,,,,,,AMP,right,0.6503997870458988,,,right,0,0.6503997870458988,0,,,,,,,,,,,,,,,,,,,,,,1077,2019_Mar_15_1435,mf_amp_cond1,3.0.4,59.98772505447097,
edancipation,glacenta,&&&&&&&&,None,nonword,,,,,,,0,291,291,291,,,,,,,,,,,,,,,,,,,,,AMP,left,0.6337357396550942,,,left,0,0.6337357396550942,0,,,,,,,,,,,,,,,,,,,,,,1077,2019_Mar_15_1435,mf_amp_cond1,3.0.4,59.98772505447097,
actively,ecgagement,&&&&&&&&&&,left,authority.virtue,,,,,,,0,292,292,292,,,,,,,,,,,,,,,,,,,,,AMP,right,0.4003438200597884,,,right,0,0.4003438200597884,0,,,,,,,,,,,,,,,,,,,,,,1077,2019_Mar_15_1435,mf_amp_cond1,3.0.4,59.98772505447097,
unpleasant,frocessing,&&&&&&&&&&,None,control,,,,,,,0,293,293,293,,,,,,,,,,,,,,,,,,,,,AMP,left,0.9671962949505541,,,left,0,0.9671962949505541,0,,,,,,,,,,,,,,,,,,,,,,1077,2019_Mar_15_1435,mf_amp_cond1,3.0.4,59.98772505447097,
praise,lorthwhile,&&&&&&&&&&,left,authority.virtue,,,,,,,0,294,294,294,,,,,,,,,,,,,,,,,,,,,AMP,right,0.7171204428595956,,,right,0,0.7171204428595956,0,,,,,,,,,,,,,,,,,,,,,,1077,2019_Mar_15_1435,mf_amp_cond1,3.0.4,59.98772505447097,
groups,asn,&&&,right,loyalty.vice,,,,,,,0,295,295,295,,,,,,,,,,,,,,,,,,,,,AMP,left,0.7337700575008057,,,left,0,0.7337700575008057,0,,,,,,,,,,,,,,,,,,,,,,1077,2019_Mar_15_1435,mf_amp_cond1,3.0.4,59.98772505447097,
threatened,thadowed,&&&&&&&&,right,fairness.vice,,,,,,,0,296,296,296,,,,,,,,,,,,,,,,,,,,,AMP,right,0.5337479273002828,,,right,1,0.5337479273002828,1,,,,,,,,,,,,,,,,,,,,,,1077,2019_Mar_15_1435,mf_amp_cond1,3.0.4,59.98772505447097,
growth,pullness,&&&&&&&&,left,care.virtue,,,,,,,0,297,297,297,,,,,,,,,,,,,,,,,,,,,AMP,right,0.5837291647330858,,,right,0,0.5837291647330858,0,,,,,,,,,,,,,,,,,,,,,,1077,2019_Mar_15_1435,mf_amp_cond1,3.0.4,59.98772505447097,
fighters,papert,&&&&&&,right,authority.vice,,,,,,,0,298,298,298,,,,,,,,,,,,,,,,,,,,,AMP,left,1.3006090618437156,,,left,0,1.3006090618437156,0,,,,,,,,,,,,,,,,,,,,,,1077,2019_Mar_15_1435,mf_amp_cond1,3.0.4,59.98772505447097,
scandal,reprisols,&&&&&&&&&,right,sanctity.vice,,,,,,,0,299,299,299,,,,,,,,,,,,,,,,,,,,,AMP,right,0.517040902399458,,,right,1,0.517040902399458,1,,,,,,,,,,,,,,,,,,,,,,1077,2019_Mar_15_1435,mf_amp_cond1,3.0.4,59.98772505447097,
violations,esquisiteness,&&&&&&&&&&&&&,right,sanctity.vice,,,,,,,0,300,300,300,,,,,,,,,,,,,,,,,,,,,AMP,left,0.9005455577571411,,,left,0,0.9005455577571411,0,,,,,,,,,,,,,,,,,,,,,,1077,2019_Mar_15_1435,mf_amp_cond1,3.0.4,59.98772505447097,
fraud,metibolic,&&&&&&&&&,right,fairness.vice,,,,,,,0,301,301,301,,,,,,,,,,,,,,,,,,,,,AMP,left,1.4006183629389852,,,left,0,1.4006183629389852,0,,,,,,,,,,,,,,,,,,,,,,1077,2019_Mar_15_1435,mf_amp_cond1,3.0.4,59.98772505447097,
slending,Cunday,&&&&&&,None,nonword,,,,,,,0,302,302,302,,,,,,,,,,,,,,,,,,,,,AMP,right,0.566924317899975,,,right,0,0.566924317899975,0,,,,,,,,,,,,,,,,,,,,,,1077,2019_Mar_15_1435,mf_amp_cond1,3.0.4,59.98772505447097,
ability,chadows,&&&&&&&,left,authority.virtue,,,,,,,0,303,303,303,,,,,,,,,,,,,,,,,,,,,AMP,left,1.1672190666140523,,,left,1,1.1672190666140523,1,,,,,,,,,,,,,,,,,,,,,,1077,2019_Mar_15_1435,mf_amp_cond1,3.0.4,59.98772505447097,
war,precificity,&&&&&&&&&&&,right,sanctity.vice,,,,,,,0,304,304,304,,,,,,,,,,,,,,,,,,,,,AMP,left,0.48372691962867975,,,left,0,0.48372691962867975,0,,,,,,,,,,,,,,,,,,,,,,1077,2019_Mar_15_1435,mf_amp_cond1,3.0.4,59.98772505447097,
trust,fangsters,&&&&&&&&&,left,authority.virtue,,,,,,,0,305,305,305,,,,,,,,,,,,,,,,,,,,,AMP,left,0.4336873097636271,,,left,1,0.4336873097636271,1,,,,,,,,,,,,,,,,,,,,,,1077,2019_Mar_15_1435,mf_amp_cond1,3.0.4,59.98772505447097,
peaceful,smapper,&&&&&&&,left,authority.virtue,,,,,,,0,306,306,306,,,,,,,,,,,,,,,,,,,,,AMP,left,1.0671911633107811,,,left,1,1.0671911633107811,1,,,,,,,,,,,,,,,,,,,,,,1077,2019_Mar_15_1435,mf_amp_cond1,3.0.4,59.98772505447097,
faith,juck,&&&&,left,sanctity.virtue,,,,,,,0,307,307,307,,,,,,,,,,,,,,,,,,,,,AMP,right,0.9671818622009596,,,right,0,0.9671818622009596,0,,,,,,,,,,,,,,,,,,,,,,1077,2019_Mar_15_1435,mf_amp_cond1,3.0.4,59.98772505447097,
refused,sliptery,&&&&&&&&,right,authority.vice,,,,,,,0,308,308,308,,,,,,,,,,,,,,,,,,,,,AMP,left,0.5003717233630596,,,left,0,0.5003717233630596,0,,,,,,,,,,,,,,,,,,,,,,1077,2019_Mar_15_1435,mf_amp_cond1,3.0.4,59.98772505447097,
terrorist,crinking,&&&&&&&&,right,loyalty.vice,,,,,,,0,309,309,309,,,,,,,,,,,,,,,,,,,,,AMP,left,0.8504809311416466,,,left,0,0.8504809311416466,0,,,,,,,,,,,,,,,,,,,,,,1077,2019_Mar_15_1435,mf_amp_cond1,3.0.4,59.98772505447097,
emassion,gaultless,&&&&&&&&&,None,nonword,,,,,,,0,310,310,310,,,,,,,,,,,,,,,,,,,,,AMP,left,0.7671260555944173,,,left,0,0.7671260555944173,0,,,,,,,,,,,,,,,,,,,,,,1077,2019_Mar_15_1435,mf_amp_cond1,3.0.4,59.98772505447097,
simplustic,ugeasily,&&&&&&&&,None,nonword,,,,,,,0,311,311,311,,,,,,,,,,,,,,,,,,,,,AMP,left,0.7337751891609514,,,left,0,0.7337751891609514,0,,,,,,,,,,,,,,,,,,,,,,1077,2019_Mar_15_1435,mf_amp_cond1,3.0.4,59.98772505447097,
thabbily,unscothed,&&&&&&&&&,None,nonword,,,,,,,0,312,312,312,,,,,,,,,,,,,,,,,,,,,AMP,left,1.1505800359736895,,,left,0,1.1505800359736895,0,,,,,,,,,,,,,,,,,,,,,,1077,2019_Mar_15_1435,mf_amp_cond1,3.0.4,59.98772505447097,
great,blunderints,&&&&&&&&&&&,left,loyalty.virtue,,,,,,,0,313,313,313,,,,,,,,,,,,,,,,,,,,,AMP,right,0.7336359933542553,,,right,0,0.7336359933542553,0,,,,,,,,,,,,,,,,,,,,,,1077,2019_Mar_15_1435,mf_amp_cond1,3.0.4,59.98772505447097,
serial,abointment,&&&&&&&&&&,right,sanctity.vice,,,,,,,0,314,314,314,,,,,,,,,,,,,,,,,,,,,AMP,left,0.8671388846996706,,,left,0,0.8671388846996706,0,,,,,,,,,,,,,,,,,,,,,,1077,2019_Mar_15_1435,mf_amp_cond1,3.0.4,59.98772505447097,
nomparisons,Loorish,&&&&&&&,None,nonword,,,,,,,0,315,315,315,,,,,,,,,,,,,,,,,,,,,AMP,left,0.8338034131884342,,,left,0,0.8338034131884342,0,,,,,,,,,,,,,,,,,,,,,,1077,2019_Mar_15_1435,mf_amp_cond1,3.0.4,59.98772505447097,
shot,nonobservalt,&&&&&&&&&&&&,right,care.vice,,,,,,,0,316,316,316,,,,,,,,,,,,,,,,,,,,,AMP,left,0.5837455218425021,,,left,0,0.5837455218425021,0,,,,,,,,,,,,,,,,,,,,,,1077,2019_Mar_15_1435,mf_amp_cond1,3.0.4,59.98772505447097,
failure,infet,&&&&&,right,loyalty.vice,,,,,,,0,317,317,317,,,,,,,,,,,,,,,,,,,,,AMP,left,0.8838173648400698,,,left,0,0.8838173648400698,0,,,,,,,,,,,,,,,,,,,,,,1077,2019_Mar_15_1435,mf_amp_cond1,3.0.4,59.98772505447097,
freedom,imebreaker,&&&&&&&&&&,left,sanctity.virtue,,,,,,,0,318,318,318,,,,,,,,,,,,,,,,,,,,,AMP,right,0.46703881766006816,,,right,0,0.46703881766006816,0,,,,,,,,,,,,,,,,,,,,,,1077,2019_Mar_15_1435,mf_amp_cond1,3.0.4,59.98772505447097,
credit,framo,&&&&&,left,fairness.virtue,,,,,,,0,319,319,319,,,,,,,,,,,,,,,,,,,,,AMP,left,0.9838343634037301,,,left,1,0.9838343634037301,1,,,,,,,,,,,,,,,,,,,,,,1077,2019_Mar_15_1435,mf_amp_cond1,3.0.4,59.98772505447097,
prison,proached,&&&&&&&&,right,fairness.vice,,,,,,,0,320,320,320,,,,,,,,,,,,,,,,,,,,,AMP,left,0.7004294543439755,,,left,0,0.7004294543439755,0,,,,,,,,,,,,,,,,,,,,,,1077,2019_Mar_15_1435,mf_amp_cond1,3.0.4,59.98772505447097,
protect,carvels,&&&&&&&,left,fairness.virtue,,,,,,,0,321,321,321,,,,,,,,,,,,,,,,,,,,,AMP,left,0.700432340890984,,,left,1,0.700432340890984,1,,,,,,,,,,,,,,,,,,,,,,1077,2019_Mar_15_1435,mf_amp_cond1,3.0.4,59.98772505447097,
killed,wump,&&&&,right,care.vice,,,,,,,0,322,322,322,,,,,,,,,,,,,,,,,,,,,AMP,left,0.6504498205613345,,,left,0,0.6504498205613345,0,,,,,,,,,,,,,,,,,,,,,,1077,2019_Mar_15_1435,mf_amp_cond1,3.0.4,59.98772505447097,
black,lempestuous,&&&&&&&&&&&,right,loyalty.vice,,,,,,,0,323,323,323,,,,,,,,,,,,,,,,,,,,,AMP,left,1.6840251963585615,,,left,0,1.6840251963585615,0,,,,,,,,,,,,,,,,,,,,,,1077,2019_Mar_15_1435,mf_amp_cond1,3.0.4,59.98772505447097,
health,reelectiob,&&&&&&&&&&,left,care.virtue,,,,,,,0,324,324,324,,,,,,,,,,,,,,,,,,,,,AMP,right,0.4170267903682543,,,right,0,0.4170267903682543,0,,,,,,,,,,,,,,,,,,,,,,1077,2019_Mar_15_1435,mf_amp_cond1,3.0.4,59.98772505447097,
framatic,ilportation,&&&&&&&&&&&,None,nonword,,,,,,,0,325,325,325,,,,,,,,,,,,,,,,,,,,,AMP,left,0.7337652465939755,,,left,0,0.7337652465939755,0,,,,,,,,,,,,,,,,,,,,,,1077,2019_Mar_15_1435,mf_amp_cond1,3.0.4,59.98772505447097,
corruption,totalestic,&&&&&&&&&&,right,sanctity.vice,,,,,,,0,326,326,326,,,,,,,,,,,,,,,,,,,,,AMP,left,0.7337562662141863,,,left,0,0.7337562662141863,0,,,,,,,,,,,,,,,,,,,,,,1077,2019_Mar_15_1435,mf_amp_cond1,3.0.4,59.98772505447097,
terrorists,tomedians,&&&&&&&&&,right,fairness.vice,,,,,,,0,327,327,327,,,,,,,,,,,,,,,,,,,,,AMP,left,1.0671911633107811,,,left,0,1.0671911633107811,0,,,,,,,,,,,,,,,,,,,,,,1077,2019_Mar_15_1435,mf_amp_cond1,3.0.4,59.98772505447097,
,,,,,,,,,,,,,,,,,,,,,,,,,,,,,,,,,,,,,,,,,,,,4,7.221,,,,,,,,,,,,,,,,,,,,1077,2019_Mar_15_1435,mf_amp_cond1,3.0.4,59.98772505447097,
,,,,,,,,,,,,,,,,,,,,,,,,,,,,,,,,,,,,,,,,,,,,,,4,5.82,,,,,,,,,,,,,,,,,,1077,2019_Mar_15_1435,mf_amp_cond1,3.0.4,59.98772505447097,
,,,,,,,,,,,,,,,,,,,,,,,,,,,,,,,,,,,,,,,,,,,,,,,,5,10.521,,,,,,,,,,,,,,,,1077,2019_Mar_15_1435,mf_amp_cond1,3.0.4,59.98772505447097,
,,,,,,,,,,,,,,,,,,,,,,,,,,,,,,,,,,,,,,,,,,,,,,,,,,right,1.1339775683009066,,,,,,,,,,,,,,1077,2019_Mar_15_1435,mf_amp_cond1,3.0.4,59.98772505447097,
bisebell,,&&&&&&&,,,,,,,,,,,,,0,0,0,1,,,,,,,,,,,,,,,,,LDT_prac,left,1.0671930876851548,,,,,,0,,,,,,,,,left,1.0671930876851548,,,,,,,,,,,,1077,2019_Mar_15_1435,mf_amp_cond1,3.0.4,59.98772505447097,
keyboard,,&&&&&&&,,,,,,,,,,,,,0,1,1,0,,,,,,,,,,,,,,,,,LDT_prac,left,1.35063071094919,,,,,,0,,,,,,,,,left,1.35063071094919,,,,,,,,,,,,1077,2019_Mar_15_1435,mf_amp_cond1,3.0.4,59.98772505447097,
,,,,,,,,,,,,,,,,,,,,,,,,,,,,,,,,,,,,,,,,,,,,,,,,,,,,,,right,1.4839838225016138,,,,,,,,,,1077,2019_Mar_15_1435,mf_amp_cond1,3.0.4,59.98772505447097,
clamorek,,&&&&&&&&,right,nonword,,,,,,,,,,,,,,,0,0,0,74,,,,,,,,,,,,,LDT,left,0.9671722403872991,,,,,,0,,,,,,,,,,,,,left,0,0.9671722403872991,,,,,,,1077,2019_Mar_15_1435,mf_amp_cond1,3.0.4,59.98772505447097,
commitment,,&&&&&&&&&&,left,sanctity.virtue,,,,,,,,,,,,,,,0,1,1,149,,,,,,,,,,,,,LDT,right,0.8171403279702645,,,,,,0,,,,,,,,,,,,,right,0,0.8171403279702645,,,,,,,1077,2019_Mar_15_1435,mf_amp_cond1,3.0.4,59.98772505447097,
ning,,&&&&,right,nonword,,,,,,,,,,,,,,,0,2,2,87,,,,,,,,,,,,,LDT,right,1.1172108880709857,,,,,,1,,,,,,,,,,,,,right,1,1.1172108880709857,,,,,,,1077,2019_Mar_15_1435,mf_amp_cond1,3.0.4,59.98772505447097,
wonderfujnoss,,&&&&&&&&&&&&&,right,nonword,,,,,,,,,,,,,,,0,3,3,68,,,,,,,,,,,,,LDT,right,1.40065909535042,,,,,,1,,,,,,,,,,,,,right,1,1.40065909535042,,,,,,,1077,2019_Mar_15_1435,mf_amp_cond1,3.0.4,59.98772505447097,
troops,,&&&&&&,left,loyalty.vice,,,,,,,,,,,,,,,0,4,4,42,,,,,,,,,,,,,LDT,right,0.8171287817822304,,,,,,0,,,,,,,,,,,,,right,0,0.8171287817822304,,,,,,,1077,2019_Mar_15_1435,mf_amp_cond1,3.0.4,59.98772505447097,
allears,,&&&&&&&,right,nonword,,,,,,,,,,,,,,,0,5,5,77,,,,,,,,,,,,,LDT,left,0.7837942724436289,,,,,,0,,,,,,,,,,,,,left,0,0.7837942724436289,,,,,,,1077,2019_Mar_15_1435,mf_amp_cond1,3.0.4,59.98772505447097,
least,,&&&&&,left,neutral,,,,,,,,,,,,,,,0,6,6,198,,,,,,,,,,,,,LDT,right,0.9004785256838659,,,,,,0,,,,,,,,,,,,,right,0,0.9004785256838659,,,,,,,1077,2019_Mar_15_1435,mf_amp_cond1,3.0.4,59.98772505447097,
chreams,,&&&&&&&,right,nonword,,,,,,,,,,,,,,,0,7,7,148,,,,,,,,,,,,,LDT,left,1.0005141264409758,,,,,,0,,,,,,,,,,,,,left,0,1.0005141264409758,,,,,,,1077,2019_Mar_15_1435,mf_amp_cond1,3.0.4,59.98772505447097,
itself,,&&&&&&,left,neutral,,,,,,,,,,,,,,,0,8,8,49,,,,,,,,,,,,,LDT,right,0.817137441423256,,,,,,0,,,,,,,,,,,,,right,0,0.817137441423256,,,,,,,1077,2019_Mar_15_1435,mf_amp_cond1,3.0.4,59.98772505447097,
vurtain,,&&&&&&&,right,nonword,,,,,,,,,,,,,,,0,9,9,191,,,,,,,,,,,,,LDT,right,1.2672877023433102,,,,,,1,,,,,,,,,,,,,right,1,1.2672877023433102,,,,,,,1077,2019_Mar_15_1435,mf_amp_cond1,3.0.4,59.98772505447097,
give,,&&&&,left,neutral,,,,,,,,,,,,,,,0,10,10,101,,,,,,,,,,,,,LDT,right,0.6671052082965616,,,,,,0,,,,,,,,,,,,,right,0,0.6671052082965616,,,,,,,1077,2019_Mar_15_1435,mf_amp_cond1,3.0.4,59.98772505447097,
chonograph,,&&&&&&&&&&,right,nonword,,,,,,,,,,,,,,,0,11,11,168,,,,,,,,,,,,,LDT,left,0.7171040857501794,,,,,,0,,,,,,,,,,,,,left,0,0.7171040857501794,,,,,,,1077,2019_Mar_15_1435,mf_amp_cond1,3.0.4,59.98772505447097,
respect,,&&&&&&&,left,sanctity.virtue,,,,,,,,,,,,,,,0,12,12,48,,,,,,,,,,,,,LDT,right,0.9170264696585946,,,,,,0,,,,,,,,,,,,,right,0,0.9170264696585946,,,,,,,1077,2019_Mar_15_1435,mf_amp_cond1,3.0.4,59.98772505447097,
bluently,,&&&&&&&&,None,nonword,,,,,,,,,,,,,,,0,13,13,78,,,,,,,,,,,,,LDT,left,0.8004859024076723,,,,,,0,,,,,,,,,,,,,left,0,0.8004859024076723,,,,,,,1077,2019_Mar_15_1435,mf_amp_cond1,3.0.4,59.98772505447097,
done,,&&&&,left,neutral,,,,,,,,,,,,,,,0,14,14,43,,,,,,,,,,,,,LDT,right,0.8171300646790769,,,,,,0,,,,,,,,,,,,,right,0,0.8171300646790769,,,,,,,1077,2019_Mar_15_1435,mf_amp_cond1,3.0.4,59.98772505447097,
oam,,&&&,right,nonword,,,,,,,,,,,,,,,0,15,15,150,,,,,,,,,,,,,LDT,left,0.8671565247204853,,,,,,0,,,,,,,,,,,,,left,0,0.8671565247204853,,,,,,,1077,2019_Mar_15_1435,mf_amp_cond1,3.0.4,59.98772505447097,
further,,&&&&&&&,left,neutral,,,,,,,,,,,,,,,0,16,16,35,,,,,,,,,,,,,LDT,right,2.0008168933709385,,,,,,0,,,,,,,,,,,,,right,0,2.0008168933709385,,,,,,,1077,2019_Mar_15_1435,mf_amp_cond1,3.0.4,59.98772505447097,
even,,&&&&,left,neutral,,,,,,,,,,,,,,,0,17,17,128,,,,,,,,,,,,,LDT,right,0.6670910962857306,,,,,,0,,,,,,,,,,,,,right,0,0.6670910962857306,,,,,,,1077,2019_Mar_15_1435,mf_amp_cond1,3.0.4,59.98772505447097,
gun,,&&&,left,authority.vice,,,,,,,,,,,,,,,0,18,18,133,,,,,,,,,,,,,LDT,right,0.5837346170883393,,,,,,0,,,,,,,,,,,,,right,0,0.5837346170883393,,,,,,,1077,2019_Mar_15_1435,mf_amp_cond1,3.0.4,59.98772505447097,
greaks,,&&&&&&,right,nonword,,,,,,,,,,,,,,,0,19,19,167,,,,,,,,,,,,,LDT,right,0.9505033820751123,,,,,,1,,,,,,,,,,,,,right,1,0.9505033820751123,,,,,,,1077,2019_Mar_15_1435,mf_amp_cond1,3.0.4,59.98772505447097,
party,,&&&&&,left,loyalty.virtue,,,,,,,,,,,,,,,0,20,20,64,,,,,,,,,,,,,LDT,right,0.9171598923712736,,,,,,0,,,,,,,,,,,,,right,0,0.9171598923712736,,,,,,,1077,2019_Mar_15_1435,mf_amp_cond1,3.0.4,59.98772505447097,
safe,,&&&&,left,care.virtue,,,,,,,,,,,,,,,0,21,21,23,,,,,,,,,,,,,LDT,right,0.8671462614438497,,,,,,0,,,,,,,,,,,,,right,0,0.8671462614438497,,,,,,,1077,2019_Mar_15_1435,mf_amp_cond1,3.0.4,59.98772505447097,
charges,,&&&&&&&,left,fairness.vice,,,,,,,,,,,,,,,0,22,22,79,,,,,,,,,,,,,LDT,right,1.7174017210345482,,,,,,0,,,,,,,,,,,,,right,0,1.7174017210345482,,,,,,,1077,2019_Mar_15_1435,mf_amp_cond1,3.0.4,59.98772505447097,
values,,&&&&&&,left,sanctity.virtue,,,,,,,,,,,,,,,0,23,23,55,,,,,,,,,,,,,LDT,right,0.9338213739392813,,,,,,0,,,,,,,,,,,,,right,0,0.9338213739392813,,,,,,,1077,2019_Mar_15_1435,mf_amp_cond1,3.0.4,59.98772505447097,
grovelire,,&&&&&&&&&,right,nonword,,,,,,,,,,,,,,,0,24,24,160,,,,,,,,,,,,,LDT,left,0.867148506527883,,,,,,0,,,,,,,,,,,,,left,0,0.867148506527883,,,,,,,1077,2019_Mar_15_1435,mf_amp_cond1,3.0.4,59.98772505447097,
fonderland,,&&&&&&&&&&,right,nonword,,,,,,,,,,,,,,,0,25,25,93,,,,,,,,,,,,,LDT,left,1.4006164385791635,,,,,,0,,,,,,,,,,,,,left,0,1.4006164385791635,,,,,,,1077,2019_Mar_15_1435,mf_amp_cond1,3.0.4,59.98772505447097,
benefit,,&&&&&&&,left,fairness.virtue,,,,,,,,,,,,,,,0,26,26,27,,,,,,,,,,,,,LDT,right,0.8338136764796218,,,,,,0,,,,,,,,,,,,,right,0,0.8338136764796218,,,,,,,1077,2019_Mar_15_1435,mf_amp_cond1,3.0.4,59.98772505447097,
letish,,&&&&&&,right,nonword,,,,,,,,,,,,,,,0,27,27,103,,,,,,,,,,,,,LDT,left,0.8004605649184668,,,,,,0,,,,,,,,,,,,,left,0,0.8004605649184668,,,,,,,1077,2019_Mar_15_1435,mf_amp_cond1,3.0.4,59.98772505447097,
halaise,,&&&&&&&,None,nonword,,,,,,,,,,,,,,,0,28,28,123,,,,,,,,,,,,,LDT,right,2.934416965203127,,,,,,0,,,,,,,,,,,,,right,0,2.934416965203127,,,,,,,1077,2019_Mar_15_1435,mf_amp_cond1,3.0.4,59.98772505447097,
ittutable,,&&&&&&&&&,right,nonword,,,,,,,,,,,,,,,0,29,29,5,,,,,,,,,,,,,LDT,left,1.2672623648541048,,,,,,0,,,,,,,,,,,,,left,0,1.2672623648541048,,,,,,,1077,2019_Mar_15_1435,mf_amp_cond1,3.0.4,59.98772505447097,
pescinded,,&&&&&&&&&,right,nonword,,,,,,,,,,,,,,,0,30,30,14,,,,,,,,,,,,,LDT,left,3.1844626689126017,,,,,,0,,,,,,,,,,,,,left,0,3.1844626689126017,,,,,,,1077,2019_Mar_15_1435,mf_amp_cond1,3.0.4,59.98772505447097,
coom,,&&&&,right,nonword,,,,,,,,,,,,,,,0,31,31,196,,,,,,,,,,,,,LDT,right,1.4172978052665712,,,,,,1,,,,,,,,,,,,,right,1,1.4172978052665712,,,,,,,1077,2019_Mar_15_1435,mf_amp_cond1,3.0.4,59.98772505447097,
pulge,,&&&&&,right,nonword,,,,,,,,,,,,,,,0,32,32,66,,,,,,,,,,,,,LDT,left,1.117217302613426,,,,,,0,,,,,,,,,,,,,left,0,1.117217302613426,,,,,,,1077,2019_Mar_15_1435,mf_amp_cond1,3.0.4,59.98772505447097,
death,,&&&&&,left,care.vice,,,,,,,,,,,,,,,0,33,33,193,,,,,,,,,,,,,LDT,right,0.6837753495201468,,,,,,0,,,,,,,,,,,,,right,0,0.6837753495201468,,,,,,,1077,2019_Mar_15_1435,mf_amp_cond1,3.0.4,59.98772505447097,
gedious,,&&&&&&&,right,nonword,,,,,,,,,,,,,,,0,34,34,140,,,,,,,,,,,,,LDT,left,1.550674329919275,,,,,,0,,,,,,,,,,,,,left,0,1.550674329919275,,,,,,,1077,2019_Mar_15_1435,mf_amp_cond1,3.0.4,59.98772505447097,
yane,,&&&&,right,nonword,,,,,,,,,,,,,,,0,35,35,56,,,,,,,,,,,,,LDT,left,1.1005356152018066,,,,,,0,,,,,,,,,,,,,left,0,1.1005356152018066,,,,,,,1077,2019_Mar_15_1435,mf_amp_cond1,3.0.4,59.98772505447097,
pafer,,&&&&&,right,nonword,,,,,,,,,,,,,,,0,36,36,188,,,,,,,,,,,,,LDT,left,1.5005182959139347,,,,,,0,,,,,,,,,,,,,left,0,1.5005182959139347,,,,,,,1077,2019_Mar_15_1435,mf_amp_cond1,3.0.4,59.98772505447097,
dumid,,&&&&&,right,nonword,,,,,,,,,,,,,,,0,37,37,4,,,,,,,,,,,,,LDT,left,1.0505492461379617,,,,,,0,,,,,,,,,,,,,left,0,1.0505492461379617,,,,,,,1077,2019_Mar_15_1435,mf_amp_cond1,3.0.4,59.98772505447097,
Boeinf,,&&&&&&,right,nonword,,,,,,,,,,,,,,,0,38,38,137,,,,,,,,,,,,,LDT,left,1.3506172404013341,,,,,,0,,,,,,,,,,,,,left,0,1.3506172404013341,,,,,,,1077,2019_Mar_15_1435,mf_amp_cond1,3.0.4,59.98772505447097,
crilfully,,&&&&&&&&&,right,nonword,,,,,,,,,,,,,,,0,39,39,45,,,,,,,,,,,,,LDT,right,0.6504289732547477,,,,,,1,,,,,,,,,,,,,right,1,0.6504289732547477,,,,,,,1077,2019_Mar_15_1435,mf_amp_cond1,3.0.4,59.98772505447097,
erks,,&&&&,right,nonword,,,,,,,,,,,,,,,0,40,40,82,,,,,,,,,,,,,LDT,right,0.8338011680898489,,,,,,1,,,,,,,,,,,,,right,1,0.8338011680898489,,,,,,,1077,2019_Mar_15_1435,mf_amp_cond1,3.0.4,59.98772505447097,
forced,,&&&&&&,left,fairness.vice,,,,,,,,,,,,,,,0,41,41,154,,,,,,,,,,,,,LDT,right,0.7504366707144072,,,,,,0,,,,,,,,,,,,,right,0,0.7504366707144072,,,,,,,1077,2019_Mar_15_1435,mf_amp_cond1,3.0.4,59.98772505447097,
viscs,,&&&&&,None,nonword,,,,,,,,,,,,,,,0,42,42,37,,,,,,,,,,,,,LDT,right,1.3339490235521225,,,,,,0,,,,,,,,,,,,,right,0,1.3339490235521225,,,,,,,1077,2019_Mar_15_1435,mf_amp_cond1,3.0.4,59.98772505447097,
dignity,,&&&&&&&,left,sanctity.virtue,,,,,,,,,,,,,,,0,43,43,3,,,,,,,,,,,,,LDT,right,0.8171015199186513,,,,,,0,,,,,,,,,,,,,right,0,0.8171015199186513,,,,,,,1077,2019_Mar_15_1435,mf_amp_cond1,3.0.4,59.98772505447097,
squets,,&&&&&&,right,nonword,,,,,,,,,,,,,,,0,44,44,192,,,,,,,,,,,,,LDT,left,0.7004525467491476,,,,,,0,,,,,,,,,,,,,left,0,0.7004525467491476,,,,,,,1077,2019_Mar_15_1435,mf_amp_cond1,3.0.4,59.98772505447097,
harassment,,&&&&&&&&&&,left,sanctity.vice,,,,,,,,,,,,,,,0,45,45,121,,,,,,,,,,,,,LDT,right,0.7670962279225932,,,,,,0,,,,,,,,,,,,,right,0,0.7670962279225932,,,,,,,1077,2019_Mar_15_1435,mf_amp_cond1,3.0.4,59.98772505447097,
fifty,,&&&&&,left,neutral,,,,,,,,,,,,,,,0,46,46,169,,,,,,,,,,,,,LDT,left,1.634045241837157,,,,,,1,,,,,,,,,,,,,left,1,1.634045241837157,,,,,,,1077,2019_Mar_15_1435,mf_amp_cond1,3.0.4,59.98772505447097,
about,,&&&&&,left,neutral,,,,,,,,,,,,,,,0,47,47,126,,,,,,,,,,,,,LDT,right,1.4006279847817495,,,,,,0,,,,,,,,,,,,,right,0,1.4006279847817495,,,,,,,1077,2019_Mar_15_1435,mf_amp_cond1,3.0.4,59.98772505447097,
somehow,,&&&&&&&,left,neutral,,,,,,,,,,,,,,,0,48,48,139,,,,,,,,,,,,,LDT,right,0.7671193203132134,,,,,,0,,,,,,,,,,,,,right,0,0.7671193203132134,,,,,,,1077,2019_Mar_15_1435,mf_amp_cond1,3.0.4,59.98772505447097,
shoirmaster,,&&&&&&&&&&&,right,nonword,,,,,,,,,,,,,,,0,49,49,61,,,,,,,,,,,,,LDT,left,1.433965059928596,,,,,,0,,,,,,,,,,,,,left,0,1.433965059928596,,,,,,,1077,2019_Mar_15_1435,mf_amp_cond1,3.0.4,59.98772505447097,
hescribe,,&&&&&&&&,right,nonword,,,,,,,,,,,,,,,0,50,50,19,,,,,,,,,,,,,LDT,right,0.8671539588976884,,,,,,1,,,,,,,,,,,,,right,1,0.8671539588976884,,,,,,,1077,2019_Mar_15_1435,mf_amp_cond1,3.0.4,59.98772505447097,
eight,,&&&&&,left,neutral,,,,,,,,,,,,,,,0,51,51,143,,,,,,,,,,,,,LDT,right,0.9671998229459859,,,,,,0,,,,,,,,,,,,,right,0,0.9671998229459859,,,,,,,1077,2019_Mar_15_1435,mf_amp_cond1,3.0.4,59.98772505447097,
useful,,&&&&&&,left,authority.virtue,,,,,,,,,,,,,,,0,52,52,100,,,,,,,,,,,,,LDT,right,0.933855691793724,,,,,,0,,,,,,,,,,,,,right,0,0.933855691793724,,,,,,,1077,2019_Mar_15_1435,mf_amp_cond1,3.0.4,59.98772505447097,
godlaness,,&&&&&&&&&,right,nonword,,,,,,,,,,,,,,,0,53,53,155,,,,,,,,,,,,,LDT,right,1.5340057923458517,,,,,,1,,,,,,,,,,,,,right,1,1.5340057923458517,,,,,,,1077,2019_Mar_15_1435,mf_amp_cond1,3.0.4,59.98772505447097,
ejanulated,,&&&&&&&&&&,right,nonword,,,,,,,,,,,,,,,0,54,54,141,,,,,,,,,,,,,LDT,left,0.8171380828862311,,,,,,0,,,,,,,,,,,,,left,0,0.8171380828862311,,,,,,,1077,2019_Mar_15_1435,mf_amp_cond1,3.0.4,59.98772505447097,
were,,&&&&,left,neutral,,,,,,,,,,,,,,,0,55,55,94,,,,,,,,,,,,,LDT,right,0.7504466132813832,,,,,,0,,,,,,,,,,,,,right,0,0.7504466132813832,,,,,,,1077,2019_Mar_15_1435,mf_amp_cond1,3.0.4,59.98772505447097,
racist,,&&&&&&,left,sanctity.vice,,,,,,,,,,,,,,,0,56,56,1,,,,,,,,,,,,,LDT,right,0.7337809622404166,,,,,,0,,,,,,,,,,,,,right,0,0.7337809622404166,,,,,,,1077,2019_Mar_15_1435,mf_amp_cond1,3.0.4,59.98772505447097,
discovars,,&&&&&&&&&,right,nonword,,,,,,,,,,,,,,,0,57,57,105,,,,,,,,,,,,,LDT,right,1.2339127813174855,,,,,,1,,,,,,,,,,,,,right,1,1.2339127813174855,,,,,,,1077,2019_Mar_15_1435,mf_amp_cond1,3.0.4,59.98772505447097,
restore,,&&&&&&&,left,care.virtue,,,,,,,,,,,,,,,0,58,58,183,,,,,,,,,,,,,LDT,right,0.883816402652883,,,,,,0,,,,,,,,,,,,,right,0,0.883816402652883,,,,,,,1077,2019_Mar_15_1435,mf_amp_cond1,3.0.4,59.98772505447097,
anyhow,,&&&&&&,left,neutral,,,,,,,,,,,,,,,0,59,59,112,,,,,,,,,,,,,LDT,left,0.7837917066353839,,,,,,1,,,,,,,,,,,,,left,1,0.7837917066353839,,,,,,,1077,2019_Mar_15_1435,mf_amp_cond1,3.0.4,59.98772505447097,
brotesque,,&&&&&&&&&,right,nonword,,,,,,,,,,,,,,,0,60,60,98,,,,,,,,,,,,,LDT,left,0.8671036046580411,,,,,,0,,,,,,,,,,,,,left,0,0.8671036046580411,,,,,,,1077,2019_Mar_15_1435,mf_amp_cond1,3.0.4,59.98772505447097,
front,,&&&&&,left,neutral,,,,,,,,,,,,,,,0,61,61,113,,,,,,,,,,,,,LDT,right,0.7671321494271979,,,,,,0,,,,,,,,,,,,,right,0,0.7671321494271979,,,,,,,1077,2019_Mar_15_1435,mf_amp_cond1,3.0.4,59.98772505447097,
promises,,&&&&&&&&,left,fairness.virtue,,,,,,,,,,,,,,,0,62,62,20,,,,,,,,,,,,,LDT,right,0.6337501723901369,,,,,,0,,,,,,,,,,,,,right,0,0.6337501723901369,,,,,,,1077,2019_Mar_15_1435,mf_amp_cond1,3.0.4,59.98772505447097,
counpy's,,&&&&&&&&,right,nonword,,,,,,,,,,,,,,,0,63,63,157,,,,,,,,,,,,,LDT,right,0.8170040187105769,,,,,,1,,,,,,,,,,,,,right,1,0.8170040187105769,,,,,,,1077,2019_Mar_15_1435,mf_amp_cond1,3.0.4,59.98772505447097,
ammessment,,&&&&&&&&&&,right,nonword,,,,,,,,,,,,,,,0,64,64,31,,,,,,,,,,,,,LDT,right,0.900515730085317,,,,,,1,,,,,,,,,,,,,right,1,0.900515730085317,,,,,,,1077,2019_Mar_15_1435,mf_amp_cond1,3.0.4,59.98772505447097,
tove,,&&&&,right,nonword,,,,,,,,,,,,,,,0,65,65,6,,,,,,,,,,,,,LDT,right,0.8171040857414482,,,,,,1,,,,,,,,,,,,,right,1,0.8171040857414482,,,,,,,1077,2019_Mar_15_1435,mf_amp_cond1,3.0.4,59.98772505447097,
pistraught,,&&&&&&&&&&,right,nonword,,,,,,,,,,,,,,,0,66,66,180,,,,,,,,,,,,,LDT,left,0.68375289857795,,,,,,0,,,,,,,,,,,,,left,0,0.68375289857795,,,,,,,1077,2019_Mar_15_1435,mf_amp_cond1,3.0.4,59.98772505447097,
with,,&&&&,left,neutral,,,,,,,,,,,,,,,0,67,67,44,,,,,,,,,,,,,LDT,right,1.0672055960603757,,,,,,0,,,,,,,,,,,,,right,0,1.0672055960603757,,,,,,,1077,2019_Mar_15_1435,mf_amp_cond1,3.0.4,59.98772505447097,
honstables,,&&&&&&&&&&,right,nonword,,,,,,,,,,,,,,,0,68,68,63,,,,,,,,,,,,,LDT,left,0.9004913547832984,,,,,,0,,,,,,,,,,,,,left,0,0.9004913547832984,,,,,,,1077,2019_Mar_15_1435,mf_amp_cond1,3.0.4,59.98772505447097,
there,,&&&&&,left,neutral,,,,,,,,,,,,,,,0,69,69,33,,,,,,,,,,,,,LDT,right,0.7004310579941375,,,,,,0,,,,,,,,,,,,,right,0,0.7004310579941375,,,,,,,1077,2019_Mar_15_1435,mf_amp_cond1,3.0.4,59.98772505447097,
toward,,&&&&&&,left,neutral,,,,,,,,,,,,,,,0,70,70,186,,,,,,,,,,,,,LDT,right,0.8671411297982559,,,,,,0,,,,,,,,,,,,,right,0,0.8671411297982559,,,,,,,1077,2019_Mar_15_1435,mf_amp_cond1,3.0.4,59.98772505447097,
myself,,&&&&&&,left,neutral,,,,,,,,,,,,,,,0,71,71,91,,,,,,,,,,,,,LDT,right,0.6004057204991113,,,,,,0,,,,,,,,,,,,,right,0,0.6004057204991113,,,,,,,1077,2019_Mar_15_1435,mf_amp_cond1,3.0.4,59.98772505447097,
protesters,,&&&&&&&&&&,left,authority.vice,,,,,,,,,,,,,,,0,72,72,90,,,,,,,,,,,,,LDT,left,0.7671215653972467,,,,,,1,,,,,,,,,,,,,left,1,0.7671215653972467,,,,,,,1077,2019_Mar_15_1435,mf_amp_cond1,3.0.4,59.98772505447097,
could,,&&&&&,left,neutral,,,,,,,,,,,,,,,0,73,73,11,,,,,,,,,,,,,LDT,right,0.9005128435383085,,,,,,0,,,,,,,,,,,,,right,0,0.9005128435383085,,,,,,,1077,2019_Mar_15_1435,mf_amp_cond1,3.0.4,59.98772505447097,
saned,,&&&&&,None,nonword,,,,,,,,,,,,,,,0,74,74,8,,,,,,,,,,,,,LDT,left,0.9505059478979092,,,,,,0,,,,,,,,,,,,,left,0,0.9505059478979092,,,,,,,1077,2019_Mar_15_1435,mf_amp_cond1,3.0.4,59.98772505447097,
encourage,,&&&&&&&&&,left,authority.virtue,,,,,,,,,,,,,,,0,75,75,41,,,,,,,,,,,,,LDT,right,0.7004419627191965,,,,,,0,,,,,,,,,,,,,right,0,0.7004419627191965,,,,,,,1077,2019_Mar_15_1435,mf_amp_cond1,3.0.4,59.98772505447097,
although,,&&&&&&&&,left,neutral,,,,,,,,,,,,,,,0,76,76,124,,,,,,,,,,,,,LDT,left,0.8671440163452644,,,,,,1,,,,,,,,,,,,,left,1,0.8671440163452644,,,,,,,1077,2019_Mar_15_1435,mf_amp_cond1,3.0.4,59.98772505447097,
vicissifude,,&&&&&&&&&&&,right,nonword,,,,,,,,,,,,,,,0,77,77,132,,,,,,,,,,,,,LDT,right,0.5003919292212231,,,,,,1,,,,,,,,,,,,,right,1,0.5003919292212231,,,,,,,1077,2019_Mar_15_1435,mf_amp_cond1,3.0.4,59.98772505447097,
refuejing,,&&&&&&&&&,right,nonword,,,,,,,,,,,,,,,0,78,78,147,,,,,,,,,,,,,LDT,left,0.71711178321857,,,,,,0,,,,,,,,,,,,,left,0,0.71711178321857,,,,,,,1077,2019_Mar_15_1435,mf_amp_cond1,3.0.4,59.98772505447097,
promised,,&&&&&&&&,left,loyalty.virtue,,,,,,,,,,,,,,,0,79,79,177,,,,,,,,,,,,,LDT,right,0.6670926999213407,,,,,,0,,,,,,,,,,,,,right,0,0.6670926999213407,,,,,,,1077,2019_Mar_15_1435,mf_amp_cond1,3.0.4,59.98772505447097,
noped,,&&&&&,right,nonword,,,,,,,,,,,,,,,0,80,80,83,,,,,,,,,,,,,LDT,left,0.8004621685686288,,,,,,0,,,,,,,,,,,,,left,0,0.8004621685686288,,,,,,,1077,2019_Mar_15_1435,mf_amp_cond1,3.0.4,59.98772505447097,
rebels,,&&&&&&,left,authority.vice,,,,,,,,,,,,,,,0,81,81,58,,,,,,,,,,,,,LDT,right,0.83366934901278,,,,,,0,,,,,,,,,,,,,right,0,0.83366934901278,,,,,,,1077,2019_Mar_15_1435,mf_amp_cond1,3.0.4,59.98772505447097,
latter,,&&&&&&,left,neutral,,,,,,,,,,,,,,,0,82,82,162,,,,,,,,,,,,,LDT,left,0.7671430541522568,,,,,,1,,,,,,,,,,,,,left,1,0.7671430541522568,,,,,,,1077,2019_Mar_15_1435,mf_amp_cond1,3.0.4,59.98772505447097,
gandbrake,,&&&&&&&&&,right,nonword,,,,,,,,,,,,,,,0,83,83,67,,,,,,,,,,,,,LDT,right,1.8507760005886666,,,,,,1,,,,,,,,,,,,,right,1,1.8507760005886666,,,,,,,1077,2019_Mar_15_1435,mf_amp_cond1,3.0.4,59.98772505447097,
tislay,,&&&&&&,right,nonword,,,,,,,,,,,,,,,0,84,84,118,,,,,,,,,,,,,LDT,left,1.0172115295135882,,,,,,0,,,,,,,,,,,,,left,0,1.0172115295135882,,,,,,,1077,2019_Mar_15_1435,mf_amp_cond1,3.0.4,59.98772505447097,
injured,,&&&&&&&,left,care.vice,,,,,,,,,,,,,,,0,85,85,99,,,,,,,,,,,,,LDT,right,0.8838170441158582,,,,,,0,,,,,,,,,,,,,right,0,0.8838170441158582,,,,,,,1077,2019_Mar_15_1435,mf_amp_cond1,3.0.4,59.98772505447097,
faspberry,,&&&&&&&&&,None,nonword,,,,,,,,,,,,,,,0,86,86,18,,,,,,,,,,,,,LDT,left,1.3339448540937155,,,,,,0,,,,,,,,,,,,,left,0,1.3339448540937155,,,,,,,1077,2019_Mar_15_1435,mf_amp_cond1,3.0.4,59.98772505447097,
army,,&&&&,left,loyalty.vice,,,,,,,,,,,,,,,0,87,87,187,,,,,,,,,,,,,LDT,left,1.0338816707371734,,,,,,1,,,,,,,,,,,,,left,1,1.0338816707371734,,,,,,,1077,2019_Mar_15_1435,mf_amp_cond1,3.0.4,59.98772505447097,
perified,,&&&&&&&&,right,nonword,,,,,,,,,,,,,,,0,88,88,51,,,,,,,,,,,,,LDT,right,2.067331321304664,,,,,,1,,,,,,,,,,,,,right,1,2.067331321304664,,,,,,,1077,2019_Mar_15_1435,mf_amp_cond1,3.0.4,59.98772505447097,
feleological,,&&&&&&&&&&&&,right,nonword,,,,,,,,,,,,,,,0,89,89,97,,,,,,,,,,,,,LDT,left,0.8838199306483148,,,,,,0,,,,,,,,,,,,,left,0,0.8838199306483148,,,,,,,1077,2019_Mar_15_1435,mf_amp_cond1,3.0.4,59.98772505447097,
troubla,,&&&&&&&,right,nonword,,,,,,,,,,,,,,,0,90,90,30,,,,,,,,,,,,,LDT,right,0.7337703782250173,,,,,,1,,,,,,,,,,,,,right,1,0.7337703782250173,,,,,,,1077,2019_Mar_15_1435,mf_amp_cond1,3.0.4,59.98772505447097,
stindig,,&&&&&&&,right,nonword,,,,,,,,,,,,,,,0,91,91,104,,,,,,,,,,,,,LDT,right,1.3839626544649946,,,,,,1,,,,,,,,,,,,,right,1,1.3839626544649946,,,,,,,1077,2019_Mar_15_1435,mf_amp_cond1,3.0.4,59.98772505447097,
leact,,&&&&&,right,nonword,,,,,,,,,,,,,,,0,92,92,102,,,,,,,,,,,,,LDT,right,1.1505524534150027,,,,,,1,,,,,,,,,,,,,right,1,1.1505524534150027,,,,,,,1077,2019_Mar_15_1435,mf_amp_cond1,3.0.4,59.98772505447097,
lies,,&&&&,left,fairness.vice,,,,,,,,,,,,,,,0,93,93,179,,,,,,,,,,,,,LDT,right,0.8505017784336815,,,,,,0,,,,,,,,,,,,,right,0,0.8505017784336815,,,,,,,1077,2019_Mar_15_1435,mf_amp_cond1,3.0.4,59.98772505447097,
seem,,&&&&,left,neutral,,,,,,,,,,,,,,,0,94,94,25,,,,,,,,,,,,,LDT,right,1.1505797152494779,,,,,,0,,,,,,,,,,,,,right,0,1.1505797152494779,,,,,,,1077,2019_Mar_15_1435,mf_amp_cond1,3.0.4,59.98772505447097,
tabin,,&&&&&,right,nonword,,,,,,,,,,,,,,,0,95,95,163,,,,,,,,,,,,,LDT,right,1.383959767917986,,,,,,1,,,,,,,,,,,,,right,1,1.383959767917986,,,,,,,1077,2019_Mar_15_1435,mf_amp_cond1,3.0.4,59.98772505447097,
pharing,,&&&&&&&,right,nonword,,,,,,,,,,,,,,,0,96,96,158,,,,,,,,,,,,,LDT,right,0.9671725610969588,,,,,,1,,,,,,,,,,,,,right,1,0.9671725610969588,,,,,,,1077,2019_Mar_15_1435,mf_amp_cond1,3.0.4,59.98772505447097,
noone,,&&&&&,left,neutral,,,,,,,,,,,,,,,0,97,97,71,,,,,,,,,,,,,LDT,left,0.7671199617761886,,,,,,1,,,,,,,,,,,,,left,1,0.7671199617761886,,,,,,,1077,2019_Mar_15_1435,mf_amp_cond1,3.0.4,59.98772505447097,
scock,,&&&&&,right,nonword,,,,,,,,,,,,,,,0,98,98,134,,,,,,,,,,,,,LDT,left,0.783811591740232,,,,,,0,,,,,,,,,,,,,left,0,0.783811591740232,,,,,,,1077,2019_Mar_15_1435,mf_amp_cond1,3.0.4,59.98772505447097,
whither,,&&&&&&&,left,neutral,,,,,,,,,,,,,,,0,99,99,107,,,,,,,,,,,,,LDT,left,0.7504485376412049,,,,,,1,,,,,,,,,,,,,left,1,0.7504485376412049,,,,,,,1077,2019_Mar_15_1435,mf_amp_cond1,3.0.4,59.98772505447097,
care,,&&&&,left,care.virtue,,,,,,,,,,,,,,,0,100,100,40,,,,,,,,,,,,,LDT,left,1.2339211202342995,,,,,,1,,,,,,,,,,,,,left,1,1.2339211202342995,,,,,,,1077,2019_Mar_15_1435,mf_amp_cond1,3.0.4,59.98772505447097,
sidearbs,,&&&&&&&&,right,nonword,,,,,,,,,,,,,,,0,101,101,108,,,,,,,,,,,,,LDT,right,0.9338284299446968,,,,,,1,,,,,,,,,,,,,right,1,0.9338284299446968,,,,,,,1077,2019_Mar_15_1435,mf_amp_cond1,3.0.4,59.98772505447097,
therefore,,&&&&&&&&&,left,neutral,,,,,,,,,,,,,,,0,102,102,16,,,,,,,,,,,,,LDT,left,1.5173176903626882,,,,,,1,,,,,,,,,,,,,left,1,1.5173176903626882,,,,,,,1077,2019_Mar_15_1435,mf_amp_cond1,3.0.4,59.98772505447097,
egpeditious,,&&&&&&&&&&&,right,nonword,,,,,,,,,,,,,,,0,103,103,171,,,,,,,,,,,,,LDT,right,0.6670885304629337,,,,,,1,,,,,,,,,,,,,right,1,0.6670885304629337,,,,,,,1077,2019_Mar_15_1435,mf_amp_cond1,3.0.4,59.98772505447097,
strofe,,&&&&&&,right,nonword,,,,,,,,,,,,,,,0,104,104,184,,,,,,,,,,,,,LDT,right,0.9838536070601549,,,,,,1,,,,,,,,,,,,,right,1,0.9838536070601549,,,,,,,1077,2019_Mar_15_1435,mf_amp_cond1,3.0.4,59.98772505447097,
nuckheap,,&&&&&&&&,right,nonword,,,,,,,,,,,,,,,0,105,105,50,,,,,,,,,,,,,LDT,left,0.8171162734070094,,,,,,0,,,,,,,,,,,,,left,0,0.8171162734070094,,,,,,,1077,2019_Mar_15_1435,mf_amp_cond1,3.0.4,59.98772505447097,
been,,&&&&,left,neutral,,,,,,,,,,,,,,,0,106,106,170,,,,,,,,,,,,,LDT,right,1.1338874438224593,,,,,,0,,,,,,,,,,,,,right,0,1.1338874438224593,,,,,,,1077,2019_Mar_15_1435,mf_amp_cond1,3.0.4,59.98772505447097,
whereafter,,&&&&&&&&&&,left,neutral,,,,,,,,,,,,,,,0,107,107,65,,,,,,,,,,,,,LDT,left,1.5173231427470455,,,,,,1,,,,,,,,,,,,,left,1,1.5173231427470455,,,,,,,1077,2019_Mar_15_1435,mf_amp_cond1,3.0.4,59.98772505447097,
shoirmaster,,&&&&&&&&&&&,None,nonword,,,,,,,,,,,,,,,0,108,108,189,,,,,,,,,,,,,LDT,right,1.4839873505115975,,,,,,0,,,,,,,,,,,,,right,0,1.4839873505115975,,,,,,,1077,2019_Mar_15_1435,mf_amp_cond1,3.0.4,59.98772505447097,
