words,mask,corr_ans,category,nonwords,tweets,topic,LDT_pracloop.thisRepN,LDT_pracloop.thisTrialN,LDT_pracloop.thisN,LDT_pracloop.thisIndex,LDT_trials.thisRepN,LDT_trials.thisTrialN,LDT_trials.thisN,LDT_trials.thisIndex,AMP_pracloop.thisRepN,AMP_pracloop.thisTrialN,AMP_pracloop.thisN,AMP_pracloop.thisIndex,AMP_trials.thisRepN,AMP_trials.thisTrialN,AMP_trials.thisN,AMP_trials.thisIndex,tweet_loop.thisRepN,tweet_loop.thisTrialN,tweet_loop.thisN,tweet_loop.thisIndex,begin_key.keys,begin_key.rt,key_resp_AMP_instr1.keys,key_resp_AMP_instr1.rt,key_resp_LDT_instr.keys,key_resp_LDT_instr.rt,resp_LDT_prac.keys,resp_LDT_prac.rt,task,keypress,RT,corr,resp_LDT_ready.keys,resp_LDT_ready.rt,resp_LDT.keys,resp_LDT.corr,resp_LDT.rt,LDT_rating.response,LDT_rating.rt,resp_AMP_ready1.keys,resp_AMP_ready1.rt,resp_AMP_prac.keys,resp_AMP_prac.rt,resp_AMP_ready.keys,resp_AMP_ready.rt,resp_AMP.keys,resp_AMP.corr,resp_AMP.rt,AMP_nonword_rating.response,AMP_nonword_rating.rt,AMP_word_rating.response,AMP_word_rating.rt,AMP_random_rating.response,AMP_random_rating.rt,key_resp_LDT_instr_2.keys,key_resp_LDT_instr_2.rt,resp_tweets.keys,resp_tweets.rt,participant,date,expName,psychopyVersion,frameRate,
,,,,,,,,,,,,,,,,,,,,,,,,,,,right,1939.4677941421687,,,,,,,,,,,,,,,,,,,,,,,,,,,,,,,,,,,,,1078,2019_Mar_15_1437,mf_amp_cond2,3.0.4,60.02317854089826,
,,,,,,,,,,,,,,,,,,,,,,,,,,,,,right,2.5343101722974097,,,,,,,,,,,,,,,,,,,,,,,,,,,,,,,,,,,1078,2019_Mar_15_1437,mf_amp_cond2,3.0.4,60.02317854089826,
,,,,,,,,,,,,,,,,,,,,,,,,,,,,,,,right,2.1008598791377153,,,,,,,,,,,,,,,,,,,,,,,,,,,,,,,,,1078,2019_Mar_15_1437,mf_amp_cond2,3.0.4,60.02317854089826,
bisebell,&&&&&&&,,,,,,0,0,0,1,,,,,,,,,,,,,,,,,,,,,,,left,2.5676113256486133,LDT_prac,left,2.5676113256486133,0,,,,,,,,,,,,,,,,,,,,,,,,,,,1078,2019_Mar_15_1437,mf_amp_cond2,3.0.4,60.02317854089826,
keyboard,&&&&&&&,,,,,,0,1,1,0,,,,,,,,,,,,,,,,,,,,,,,left,0.8005016228999011,LDT_prac,left,0.8005016228999011,0,,,,,,,,,,,,,,,,,,,,,,,,,,,1078,2019_Mar_15_1437,mf_amp_cond2,3.0.4,60.02317854089826,
,,,,,,,,,,,,,,,,,,,,,,,,,,,,,,,,,,,,,,,right,1.7174083030695328,,,,,,,,,,,,,,,,,,,,,,,,,1078,2019_Mar_15_1437,mf_amp_cond2,3.0.4,60.02317854089826,
protesters,&&&&&&&&&&,left,authority.vice,,,,,,,,0,0,0,169,,,,,,,,,,,,,,,,,,,,,LDT,left,0.8004717949370388,1,,,left,1,0.8004717949370388,,,,,,,,,,,,,,,,,,,,,,1078,2019_Mar_15_1437,mf_amp_cond2,3.0.4,60.02317854089826,
perfect,&&&&&&&,left,sanctity.virtue,,,,,,,,0,1,1,172,,,,,,,,,,,,,,,,,,,,,LDT,left,0.48370976431760937,1,,,left,1,0.48370976431760937,,,,,,,,,,,,,,,,,,,,,,1078,2019_Mar_15_1437,mf_amp_cond2,3.0.4,60.02317854089826,
honored,&&&&&&&,left,authority.virtue,,,,,,,,0,2,2,144,,,,,,,,,,,,,,,,,,,,,LDT,left,0.50039610247768,1,,,left,1,0.50039610247768,,,,,,,,,,,,,,,,,,,,,,1078,2019_Mar_15_1437,mf_amp_cond2,3.0.4,60.02317854089826,
Lacedonia,&&&&&&&&&,right,nonword,,,,,,,,0,3,3,27,,,,,,,,,,,,,,,,,,,,,LDT,left,0.5170590272900881,0,,,left,0,0.5170590272900881,,,,,,,,,,,,,,,,,,,,,,1078,2019_Mar_15_1437,mf_amp_cond2,3.0.4,60.02317854089826,
greaks,&&&&&&,right,nonword,,,,,,,,0,4,4,108,,,,,,,,,,,,,,,,,,,,,LDT,left,0.4503714062157087,0,,,left,0,0.4503714062157087,,,,,,,,,,,,,,,,,,,,,,1078,2019_Mar_15_1437,mf_amp_cond2,3.0.4,60.02317854089826,
clamorek,&&&&&&&&,right,nonword,,,,,,,,0,5,5,115,,,,,,,,,,,,,,,,,,,,,LDT,left,0.48371682041033637,0,,,left,0,0.48371682041033637,,,,,,,,,,,,,,,,,,,,,,1078,2019_Mar_15_1437,mf_amp_cond2,3.0.4,60.02317854089826,
sonvoy,&&&&&&,None,nonword,,,,,,,,0,6,6,145,,,,,,,,,,,,,,,,,,,,,LDT,left,0.7837944372586207,0,,,left,0,0.7837944372586207,,,,,,,,,,,,,,,,,,,,,,1078,2019_Mar_15_1437,mf_amp_cond2,3.0.4,60.02317854089826,
honstables,&&&&&&&&&&,right,nonword,,,,,,,,0,7,7,62,,,,,,,,,,,,,,,,,,,,,LDT,left,0.583741516675218,0,,,left,0,0.583741516675218,,,,,,,,,,,,,,,,,,,,,,1078,2019_Mar_15_1437,mf_amp_cond2,3.0.4,60.02317854089826,
forepo,&&&&&&,right,nonword,,,,,,,,0,8,8,0,,,,,,,,,,,,,,,,,,,,,LDT,left,0.9338714126351988,0,,,left,0,0.9338714126351988,,,,,,,,,,,,,,,,,,,,,,1078,2019_Mar_15_1437,mf_amp_cond2,3.0.4,60.02317854089826,
although,&&&&&&&&,left,neutral,,,,,,,,0,9,9,179,,,,,,,,,,,,,,,,,,,,,LDT,left,1.1004076487879502,1,,,left,1,1.1004076487879502,,,,,,,,,,,,,,,,,,,,,,1078,2019_Mar_15_1437,mf_amp_cond2,3.0.4,60.02317854089826,
esquisiteness,&&&&&&&&&&&&&,right,nonword,,,,,,,,0,10,10,139,,,,,,,,,,,,,,,,,,,,,LDT,left,0.8504916802485241,0,,,left,0,0.8504916802485241,,,,,,,,,,,,,,,,,,,,,,1078,2019_Mar_15_1437,mf_amp_cond2,3.0.4,60.02317854089826,
idexpressible,&&&&&&&&&&&&&,right,nonword,,,,,,,,0,11,11,18,,,,,,,,,,,,,,,,,,,,,LDT,left,0.9338499236764619,0,,,left,0,0.9338499236764619,,,,,,,,,,,,,,,,,,,,,,1078,2019_Mar_15_1437,mf_amp_cond2,3.0.4,60.02317854089826,
clean,&&&&&,left,sanctity.virtue,,,,,,,,0,12,12,81,,,,,,,,,,,,,,,,,,,,,LDT,left,0.4837164996715728,1,,,left,1,0.4837164996715728,,,,,,,,,,,,,,,,,,,,,,1078,2019_Mar_15_1437,mf_amp_cond2,3.0.4,60.02317854089826,
infet,&&&&&,right,nonword,,,,,,,,0,13,13,64,,,,,,,,,,,,,,,,,,,,,LDT,left,1.3339782159600873,0,,,left,0,1.3339782159600873,,,,,,,,,,,,,,,,,,,,,,1078,2019_Mar_15_1437,mf_amp_cond2,3.0.4,60.02317854089826,
reprisols,&&&&&&&&&,right,nonword,,,,,,,,0,14,14,196,,,,,,,,,,,,,,,,,,,,,LDT,left,0.783837094437331,0,,,left,0,0.783837094437331,,,,,,,,,,,,,,,,,,,,,,1078,2019_Mar_15_1437,mf_amp_cond2,3.0.4,60.02317854089826,
framatic,&&&&&&&&,right,nonword,,,,,,,,0,15,15,155,,,,,,,,,,,,,,,,,,,,,LDT,left,0.48371168872108683,0,,,left,0,0.48371168872108683,,,,,,,,,,,,,,,,,,,,,,1078,2019_Mar_15_1437,mf_amp_cond2,3.0.4,60.02317854089826,
seem,&&&&,left,neutral,,,,,,,,0,16,16,154,,,,,,,,,,,,,,,,,,,,,LDT,left,1.1005888616637094,1,,,left,1,1.1005888616637094,,,,,,,,,,,,,,,,,,,,,,1078,2019_Mar_15_1437,mf_amp_cond2,3.0.4,60.02317854089826,
front,&&&&&,left,neutral,,,,,,,,0,17,17,110,,,,,,,,,,,,,,,,,,,,,LDT,left,0.7337793628976215,1,,,left,1,0.7337793628976215,,,,,,,,,,,,,,,,,,,,,,1078,2019_Mar_15_1437,mf_amp_cond2,3.0.4,60.02317854089826,
gandbrake,&&&&&&&&&,right,nonword,,,,,,,,0,18,18,56,,,,,,,,,,,,,,,,,,,,,LDT,left,0.4670320859004278,0,,,left,0,0.4670320859004278,,,,,,,,,,,,,,,,,,,,,,1078,2019_Mar_15_1437,mf_amp_cond2,3.0.4,60.02317854089826,
perified,&&&&&&&&,right,nonword,,,,,,,,0,19,19,22,,,,,,,,,,,,,,,,,,,,,LDT,left,0.45037493425479624,0,,,left,0,0.45037493425479624,,,,,,,,,,,,,,,,,,,,,,1078,2019_Mar_15_1437,mf_amp_cond2,3.0.4,60.02317854089826,
pistraught,&&&&&&&&&&,right,nonword,,,,,,,,0,20,20,20,,,,,,,,,,,,,,,,,,,,,LDT,left,0.40037974521692377,0,,,left,0,0.40037974521692377,,,,,,,,,,,,,,,,,,,,,,1078,2019_Mar_15_1437,mf_amp_cond2,3.0.4,60.02317854089826,
amount,&&&&&&,left,neutral,,,,,,,,0,21,21,134,,,,,,,,,,,,,,,,,,,,,LDT,left,0.4170330480992561,1,,,left,1,0.4170330480992561,,,,,,,,,,,,,,,,,,,,,,1078,2019_Mar_15_1437,mf_amp_cond2,3.0.4,60.02317854089826,
brotesque,&&&&&&&&&,right,nonword,,,,,,,,0,22,22,116,,,,,,,,,,,,,,,,,,,,,LDT,left,0.40034991725406144,0,,,left,0,0.40034991725406144,,,,,,,,,,,,,,,,,,,,,,1078,2019_Mar_15_1437,mf_amp_cond2,3.0.4,60.02317854089826,
pullness,&&&&&&&&,right,nonword,,,,,,,,0,23,23,125,,,,,,,,,,,,,,,,,,,,,LDT,left,0.4336882753559621,0,,,left,0,0.4336882753559621,,,,,,,,,,,,,,,,,,,,,,1078,2019_Mar_15_1437,mf_amp_cond2,3.0.4,60.02317854089826,
with,&&&&,left,neutral,,,,,,,,0,24,24,176,,,,,,,,,,,,,,,,,,,,,LDT,left,0.3670102762116585,1,,,left,1,0.3670102762116585,,,,,,,,,,,,,,,,,,,,,,1078,2019_Mar_15_1437,mf_amp_cond2,3.0.4,60.02317854089826,
about,&&&&&,left,neutral,,,,,,,,0,25,25,41,,,,,,,,,,,,,,,,,,,,,LDT,left,0.3670041823206702,1,,,left,1,0.3670041823206702,,,,,,,,,,,,,,,,,,,,,,1078,2019_Mar_15_1437,mf_amp_cond2,3.0.4,60.02317854089826,
also,&&&&,left,neutral,,,,,,,,0,26,26,11,,,,,,,,,,,,,,,,,,,,,LDT,left,0.4170182944799308,1,,,left,1,0.4170182944799308,,,,,,,,,,,,,,,,,,,,,,1078,2019_Mar_15_1437,mf_amp_cond2,3.0.4,60.02317854089826,
couldnt,&&&&&&&,left,neutral,,,,,,,,0,27,27,93,,,,,,,,,,,,,,,,,,,,,LDT,left,0.433688275370514,1,,,left,1,0.433688275370514,,,,,,,,,,,,,,,,,,,,,,1078,2019_Mar_15_1437,mf_amp_cond2,3.0.4,60.02317854089826,
fear,&&&&,left,sanctity.vice,,,,,,,,0,28,28,17,,,,,,,,,,,,,,,,,,,,,LDT,left,0.6004124597529881,1,,,left,1,0.6004124597529881,,,,,,,,,,,,,,,,,,,,,,1078,2019_Mar_15_1437,mf_amp_cond2,3.0.4,60.02317854089826,
blunderints,&&&&&&&&&&&,right,nonword,,,,,,,,0,29,29,149,,,,,,,,,,,,,,,,,,,,,LDT,left,1.250581484855502,0,,,left,0,1.250581484855502,,,,,,,,,,,,,,,,,,,,,,1078,2019_Mar_15_1437,mf_amp_cond2,3.0.4,60.02317854089826,
gowlands,&&&&&&&&,right,nonword,,,,,,,,0,30,30,86,,,,,,,,,,,,,,,,,,,,,LDT,left,0.33365299498836976,0,,,left,0,0.33365299498836976,,,,,,,,,,,,,,,,,,,,,,1078,2019_Mar_15_1437,mf_amp_cond2,3.0.4,60.02317854089826,
lenon,&&&&&,right,nonword,,,,,,,,0,31,31,65,,,,,,,,,,,,,,,,,,,,,LDT,left,0.40035889772116207,0,,,left,0,0.40035889772116207,,,,,,,,,,,,,,,,,,,,,,1078,2019_Mar_15_1437,mf_amp_cond2,3.0.4,60.02317854089826,
strength,&&&&&&&&,left,sanctity.virtue,,,,,,,,0,32,32,188,,,,,,,,,,,,,,,,,,,,,LDT,left,0.4669111704133684,1,,,left,1,0.4669111704133684,,,,,,,,,,,,,,,,,,,,,,1078,2019_Mar_15_1437,mf_amp_cond2,3.0.4,60.02317854089826,
civilians,&&&&&&&&&,left,care.vice,,,,,,,,0,33,33,21,,,,,,,,,,,,,,,,,,,,,LDT,left,0.36698686286399607,1,,,left,1,0.36698686286399607,,,,,,,,,,,,,,,,,,,,,,1078,2019_Mar_15_1437,mf_amp_cond2,3.0.4,60.02317854089826,
compassion,&&&&&&&&&&,left,care.virtue,,,,,,,,0,34,34,3,,,,,,,,,,,,,,,,,,,,,LDT,left,0.71714273802354,1,,,left,1,0.71714273802354,,,,,,,,,,,,,,,,,,,,,,1078,2019_Mar_15_1437,mf_amp_cond2,3.0.4,60.02317854089826,
powerful,&&&&&&&&,left,authority.virtue,,,,,,,,0,35,35,100,,,,,,,,,,,,,,,,,,,,,LDT,left,0.26697980679455213,1,,,left,1,0.26697980679455213,,,,,,,,,,,,,,,,,,,,,,1078,2019_Mar_15_1437,mf_amp_cond2,3.0.4,60.02317854089826,
lies,&&&&,left,fairness.vice,,,,,,,,0,36,36,55,,,,,,,,,,,,,,,,,,,,,LDT,left,0.3836991802090779,1,,,left,1,0.3836991802090779,,,,,,,,,,,,,,,,,,,,,,1078,2019_Mar_15_1437,mf_amp_cond2,3.0.4,60.02317854089826,
prones,&&&&&&,right,nonword,,,,,,,,0,37,37,163,,,,,,,,,,,,,,,,,,,,,LDT,right,0.35033933314844035,1,,,right,1,0.35033933314844035,,,,,,,,,,,,,,,,,,,,,,1078,2019_Mar_15_1437,mf_amp_cond2,3.0.4,60.02317854089826,
pulge,&&&&&,right,nonword,,,,,,,,0,38,38,76,,,,,,,,,,,,,,,,,,,,,LDT,left,0.9505096411594423,0,,,left,0,0.9505096411594423,,,,,,,,,,,,,,,,,,,,,,1078,2019_Mar_15_1437,mf_amp_cond2,3.0.4,60.02317854089826,
charges,&&&&&&&,left,fairness.vice,,,,,,,,0,39,39,130,,,,,,,,,,,,,,,,,,,,,LDT,right,0.46705678217404056,0,,,right,0,0.46705678217404056,,,,,,,,,,,,,,,,,,,,,,1078,2019_Mar_15_1437,mf_amp_cond2,3.0.4,60.02317854089826,
juck,&&&&,right,nonword,,,,,,,,0,40,40,197,,,,,,,,,,,,,,,,,,,,,LDT,left,0.8338111152406782,0,,,left,0,0.8338111152406782,,,,,,,,,,,,,,,,,,,,,,1078,2019_Mar_15_1437,mf_amp_cond2,3.0.4,60.02317854089826,
great,&&&&&,left,loyalty.virtue,,,,,,,,0,41,41,109,,,,,,,,,,,,,,,,,,,,,LDT,left,2.134203048219206,1,,,left,1,2.134203048219206,,,,,,,,,,,,,,,,,,,,,,1078,2019_Mar_15_1437,mf_amp_cond2,3.0.4,60.02317854089826,
give,&&&&,left,neutral,,,,,,,,0,42,42,88,,,,,,,,,,,,,,,,,,,,,LDT,left,0.5837456861772807,1,,,left,1,0.5837456861772807,,,,,,,,,,,,,,,,,,,,,,1078,2019_Mar_15_1437,mf_amp_cond2,3.0.4,60.02317854089826,
Loorish,&&&&&&&,right,nonword,,,,,,,,0,43,43,104,,,,,,,,,,,,,,,,,,,,,LDT,left,0.450367236713646,0,,,left,0,0.450367236713646,,,,,,,,,,,,,,,,,,,,,,1078,2019_Mar_15_1437,mf_amp_cond2,3.0.4,60.02317854089826,
troops,&&&&&&,left,loyalty.vice,,,,,,,,0,44,44,178,,,,,,,,,,,,,,,,,,,,,LDT,left,0.2169714677875163,1,,,left,1,0.2169714677875163,,,,,,,,,,,,,,,,,,,,,,1078,2019_Mar_15_1437,mf_amp_cond2,3.0.4,60.02317854089826,
shoirmaster,&&&&&&&&&&&,None,nonword,,,,,,,,0,45,45,173,,,,,,,,,,,,,,,,,,,,,LDT,left,0.08357537814299576,0,,,left,0,0.08357537814299576,,,,,,,,,,,,,,,,,,,,,,1078,2019_Mar_15_1437,mf_amp_cond2,3.0.4,60.02317854089826,
tomedians,&&&&&&&&&,right,nonword,,,,,,,,0,46,46,143,,,,,,,,,,,,,,,,,,,,,LDT,left,0.4336975765618263,0,,,left,0,0.4336975765618263,,,,,,,,,,,,,,,,,,,,,,1078,2019_Mar_15_1437,mf_amp_cond2,3.0.4,60.02317854089826,
further,&&&&&&&,left,neutral,,,,,,,,0,47,47,49,,,,,,,,,,,,,,,,,,,,,LDT,left,0.08359558417578228,1,,,left,1,0.08359558417578228,,,,,,,,,,,,,,,,,,,,,,1078,2019_Mar_15_1437,mf_amp_cond2,3.0.4,60.02317854089826,
fostet,&&&&&&,right,nonword,,,,,,,,0,48,48,92,,,,,,,,,,,,,,,,,,,,,LDT,left,0.3003261831763666,0,,,left,0,0.3003261831763666,,,,,,,,,,,,,,,,,,,,,,1078,2019_Mar_15_1437,mf_amp_cond2,3.0.4,60.02317854089826,
vicissifude,&&&&&&&&&&&,right,nonword,,,,,,,,0,49,49,161,,,,,,,,,,,,,,,,,,,,,LDT,left,0.03372997035330627,0,,,left,0,0.03372997035330627,,,,,,,,,,,,,,,,,,,,,,1078,2019_Mar_15_1437,mf_amp_cond2,3.0.4,60.02317854089826,
promises,&&&&&&&&,left,fairness.virtue,,,,,,,,0,50,50,171,,,,,,,,,,,,,,,,,,,,,LDT,left,0.26704716024687514,1,,,left,1,0.26704716024687514,,,,,,,,,,,,,,,,,,,,,,1078,2019_Mar_15_1437,mf_amp_cond2,3.0.4,60.02317854089826,
credit,&&&&&&,left,fairness.virtue,,,,,,,,0,51,51,82,,,,,,,,,,,,,,,,,,,,,LDT,left,0.10027839429676533,1,,,left,1,0.10027839429676533,,,,,,,,,,,,,,,,,,,,,,1078,2019_Mar_15_1437,mf_amp_cond2,3.0.4,60.02317854089826,
three,&&&&&,left,neutral,,,,,,,,0,52,52,7,,,,,,,,,,,,,,,,,,,,,LDT,left,0.03357698179024737,1,,,left,1,0.03357698179024737,,,,,,,,,,,,,,,,,,,,,,1078,2019_Mar_15_1437,mf_amp_cond2,3.0.4,60.02317854089826,
anything,&&&&&&&&,left,neutral,,,,,,,,0,53,53,98,,,,,,,,,,,,,,,,,,,,,LDT,left,1.017178659865749,1,,,left,1,1.017178659865749,,,,,,,,,,,,,,,,,,,,,,1078,2019_Mar_15_1437,mf_amp_cond2,3.0.4,60.02317854089826,
hatigue,&&&&&&&,right,nonword,,,,,,,,0,54,54,38,,,,,,,,,,,,,,,,,,,,,LDT,left,0.2168399681831943,0,,,left,0,0.2168399681831943,,,,,,,,,,,,,,,,,,,,,,1078,2019_Mar_15_1437,mf_amp_cond2,3.0.4,60.02317854089826,
toward,&&&&&&,left,neutral,,,,,,,,0,55,55,181,,,,,,,,,,,,,,,,,,,,,LDT,left,0.18357730253774207,1,,,left,1,0.18357730253774207,,,,,,,,,,,,,,,,,,,,,,1078,2019_Mar_15_1437,mf_amp_cond2,3.0.4,60.02317854089826,
frocessing,&&&&&&&&&&,right,nonword,,,,,,,,0,56,56,57,,,,,,,,,,,,,,,,,,,,,LDT,left,0.16694452641240787,0,,,left,0,0.16694452641240787,,,,,,,,,,,,,,,,,,,,,,1078,2019_Mar_15_1437,mf_amp_cond2,3.0.4,60.02317854089826,
wonderfujnoss,&&&&&&&&&&&&&,right,nonword,,,,,,,,0,57,57,182,,,,,,,,,,,,,,,,,,,,,LDT,left,0.016926565484027378,0,,,left,0,0.016926565484027378,,,,,,,,,,,,,,,,,,,,,,1078,2019_Mar_15_1437,mf_amp_cond2,3.0.4,60.02317854089826,
chadows,&&&&&&&,right,nonword,,,,,,,,0,58,58,160,,,,,,,,,,,,,,,,,,,,,LDT,left,0.3170243883650983,0,,,left,0,0.3170243883650983,,,,,,,,,,,,,,,,,,,,,,1078,2019_Mar_15_1437,mf_amp_cond2,3.0.4,60.02317854089826,
pumber,&&&&&&,None,nonword,,,,,,,,0,59,59,51,,,,,,,,,,,,,,,,,,,,,LDT,left,0.25030950517975725,0,,,left,0,0.25030950517975725,,,,,,,,,,,,,,,,,,,,,,1078,2019_Mar_15_1437,mf_amp_cond2,3.0.4,60.02317854089826,
hereby,&&&&&&,left,neutral,,,,,,,,0,60,60,75,,,,,,,,,,,,,,,,,,,,,LDT,left,0.0002504907170077786,1,,,left,1,0.0002504907170077786,,,,,,,,,,,,,,,,,,,,,,1078,2019_Mar_15_1437,mf_amp_cond2,3.0.4,60.02317854089826,
ebbitter,&&&&&&&&,right,nonword,,,,,,,,0,61,61,70,,,,,,,,,,,,,,,,,,,,,LDT,left,0.15028929914114997,0,,,left,0,0.15028929914114997,,,,,,,,,,,,,,,,,,,,,,1078,2019_Mar_15_1437,mf_amp_cond2,3.0.4,60.02317854089826,
encourage,&&&&&&&&&,left,authority.virtue,,,,,,,,0,62,62,72,,,,,,,,,,,,,,,,,,,,,LDT,left,0.21697178852627985,1,,,left,1,0.21697178852627985,,,,,,,,,,,,,,,,,,,,,,1078,2019_Mar_15_1437,mf_amp_cond2,3.0.4,60.02317854089826,
crinking,&&&&&&&&,right,nonword,,,,,,,,0,63,63,199,,,,,,,,,,,,,,,,,,,,,LDT,left,0.00024984925403259695,0,,,left,0,0.00024984925403259695,,,,,,,,,,,,,,,,,,,,,,1078,2019_Mar_15_1437,mf_amp_cond2,3.0.4,60.02317854089826,
love,&&&&,left,loyalty.virtue,,,,,,,,0,64,64,165,,,,,,,,,,,,,,,,,,,,,LDT,left,0.1669239996408578,1,,,left,1,0.1669239996408578,,,,,,,,,,,,,,,,,,,,,,1078,2019_Mar_15_1437,mf_amp_cond2,3.0.4,60.02317854089826,
framo,&&&&&,right,nonword,,,,,,,,0,65,65,147,,,,,,,,,,,,,,,,,,,,,LDT,left,0.2002944308333099,0,,,left,0,0.2002944308333099,,,,,,,,,,,,,,,,,,,,,,1078,2019_Mar_15_1437,mf_amp_cond2,3.0.4,60.02317854089826,
ejanulated,&&&&&&&&&&,right,nonword,,,,,,,,0,66,66,194,,,,,,,,,,,,,,,,,,,,,LDT,left,0.2003483135922579,0,,,left,0,0.2003483135922579,,,,,,,,,,,,,,,,,,,,,,1078,2019_Mar_15_1437,mf_amp_cond2,3.0.4,60.02317854089826,
rivernoat,&&&&&&&&&,right,nonword,,,,,,,,0,67,67,113,,,,,,,,,,,,,,,,,,,,,LDT,left,0.033587245183298364,0,,,left,0,0.033587245183298364,,,,,,,,,,,,,,,,,,,,,,1078,2019_Mar_15_1437,mf_amp_cond2,3.0.4,60.02317854089826,
refuejing,&&&&&&&&&,right,nonword,,,,,,,,0,68,68,140,,,,,,,,,,,,,,,,,,,,,LDT,left,0.0002508114412194118,0,,,left,0,0.0002508114412194118,,,,,,,,,,,,,,,,,,,,,,1078,2019_Mar_15_1437,mf_amp_cond2,3.0.4,60.02317854089826,
reviked,&&&&&&&,right,nonword,,,,,,,,0,69,69,61,,,,,,,,,,,,,,,,,,,,,LDT,left,0.9838515273149824,0,,,left,0,0.9838515273149824,,,,,,,,,,,,,,,,,,,,,,1078,2019_Mar_15_1437,mf_amp_cond2,3.0.4,60.02317854089826,
safety,&&&&&&,left,care.virtue,,,,,,,,0,70,70,39,,,,,,,,,,,,,,,,,,,,,LDT,left,0.3503492757881759,1,,,left,1,0.3503492757881759,,,,,,,,,,,,,,,,,,,,,,1078,2019_Mar_15_1437,mf_amp_cond2,3.0.4,60.02317854089826,
pescinded,&&&&&&&&&,right,nonword,,,,,,,,0,71,71,158,,,,,,,,,,,,,,,,,,,,,LDT,left,0.6504256097105099,0,,,left,0,0.6504256097105099,,,,,,,,,,,,,,,,,,,,,,1078,2019_Mar_15_1437,mf_amp_cond2,3.0.4,60.02317854089826,
values,&&&&&&,left,sanctity.virtue,,,,,,,,0,72,72,44,,,,,,,,,,,,,,,,,,,,,LDT,left,0.5004349109076429,1,,,left,1,0.5004349109076429,,,,,,,,,,,,,,,,,,,,,,1078,2019_Mar_15_1437,mf_amp_cond2,3.0.4,60.02317854089826,
bycled,&&&&&&,None,nonword,,,,,,,,0,73,73,111,,,,,,,,,,,,,,,,,,,,,LDT,left,0.5003848769119941,0,,,left,0,0.5003848769119941,,,,,,,,,,,,,,,,,,,,,,1078,2019_Mar_15_1437,mf_amp_cond2,3.0.4,60.02317854089826,
gikely,&&&&&&,right,nonword,,,,,,,,0,74,74,66,,,,,,,,,,,,,,,,,,,,,LDT,left,0.5171353612095118,0,,,left,0,0.5171353612095118,,,,,,,,,,,,,,,,,,,,,,1078,2019_Mar_15_1437,mf_amp_cond2,3.0.4,60.02317854089826,
done,&&&&,left,neutral,,,,,,,,0,75,75,153,,,,,,,,,,,,,,,,,,,,,LDT,left,0.00024920780560933053,1,,,left,1,0.00024920780560933053,,,,,,,,,,,,,,,,,,,,,,1078,2019_Mar_15_1437,mf_amp_cond2,3.0.4,60.02317854089826,
unreflectuve,&&&&&&&&&&&&,right,nonword,,,,,,,,0,76,76,94,,,,,,,,,,,,,,,,,,,,,LDT,left,0.2669826933561126,0,,,left,0,0.2669826933561126,,,,,,,,,,,,,,,,,,,,,,1078,2019_Mar_15_1437,mf_amp_cond2,3.0.4,60.02317854089826,
were,&&&&,left,neutral,,,,,,,,0,77,77,180,,,,,,,,,,,,,,,,,,,,,LDT,left,0.21698814578121528,1,,,left,1,0.21698814578121528,,,,,,,,,,,,,,,,,,,,,,1078,2019_Mar_15_1437,mf_amp_cond2,3.0.4,60.02317854089826,
papert,&&&&&&,right,nonword,,,,,,,,0,78,78,162,,,,,,,,,,,,,,,,,,,,,LDT,left,0.11695222393609583,0,,,left,0,0.11695222393609583,,,,,,,,,,,,,,,,,,,,,,1078,2019_Mar_15_1437,mf_amp_cond2,3.0.4,60.02317854089826,
both,&&&&,left,neutral,,,,,,,,0,79,79,148,,,,,,,,,,,,,,,,,,,,,LDT,left,0.1502767906349618,1,,,left,1,0.1502767906349618,,,,,,,,,,,,,,,,,,,,,,1078,2019_Mar_15_1437,mf_amp_cond2,3.0.4,60.02317854089826,
dumid,&&&&&,right,nonword,,,,,,,,0,80,80,25,,,,,,,,,,,,,,,,,,,,,LDT,left,0.00025562240625731647,0,,,left,0,0.00025562240625731647,,,,,,,,,,,,,,,,,,,,,,1078,2019_Mar_15_1437,mf_amp_cond2,3.0.4,60.02317854089826,
amoungst,&&&&&&&&,left,neutral,,,,,,,,0,81,81,117,,,,,,,,,,,,,,,,,,,,,LDT,left,0.31700642744544894,1,,,left,1,0.31700642744544894,,,,,,,,,,,,,,,,,,,,,,1078,2019_Mar_15_1437,mf_amp_cond2,3.0.4,60.02317854089826,
even,&&&&,left,neutral,,,,,,,,0,82,82,59,,,,,,,,,,,,,,,,,,,,,LDT,left,0.13360713049769402,1,,,left,1,0.13360713049769402,,,,,,,,,,,,,,,,,,,,,,1078,2019_Mar_15_1437,mf_amp_cond2,3.0.4,60.02317854089826,
chreams,&&&&&&&,right,nonword,,,,,,,,0,83,83,90,,,,,,,,,,,,,,,,,,,,,LDT,left,0.13362733651592862,0,,,left,0,0.13362733651592862,,,,,,,,,,,,,,,,,,,,,,1078,2019_Mar_15_1437,mf_amp_cond2,3.0.4,60.02317854089826,
whereafter,&&&&&&&&&&,left,neutral,,,,,,,,0,84,84,29,,,,,,,,,,,,,,,,,,,,,LDT,left,0.13364305232244078,1,,,left,1,0.13364305232244078,,,,,,,,,,,,,,,,,,,,,,1078,2019_Mar_15_1437,mf_amp_cond2,3.0.4,60.02317854089826,
epigrach,&&&&&&&&,right,nonword,,,,,,,,0,85,85,31,,,,,,,,,,,,,,,,,,,,,LDT,left,0.21695254466612823,0,,,left,0,0.21695254466612823,,,,,,,,,,,,,,,,,,,,,,1078,2019_Mar_15_1437,mf_amp_cond2,3.0.4,60.02317854089826,
tislay,&&&&&&,right,nonword,,,,,,,,0,86,86,2,,,,,,,,,,,,,,,,,,,,,LDT,left,0.03359109394659754,0,,,left,0,0.03359109394659754,,,,,,,,,,,,,,,,,,,,,,1078,2019_Mar_15_1437,mf_amp_cond2,3.0.4,60.02317854089826,
gedious,&&&&&&&,right,nonword,,,,,,,,0,87,87,128,,,,,,,,,,,,,,,,,,,,,LDT,left,0.11694452640949748,0,,,left,0,0.11694452640949748,,,,,,,,,,,,,,,,,,,,,,1078,2019_Mar_15_1437,mf_amp_cond2,3.0.4,60.02317854089826,
sfumatoy,&&&&&&&&,None,nonword,,,,,,,,0,88,88,123,,,,,,,,,,,,,,,,,,,,,LDT,left,0.2002992417983478,0,,,left,0,0.2002992417983478,,,,,,,,,,,,,,,,,,,,,,1078,2019_Mar_15_1437,mf_amp_cond2,3.0.4,60.02317854089826,
Boeinf,&&&&&&,right,nonword,,,,,,,,0,89,89,84,,,,,,,,,,,,,,,,,,,,,LDT,left,0.10026909310545307,0,,,left,0,0.10026909310545307,,,,,,,,,,,,,,,,,,,,,,1078,2019_Mar_15_1437,mf_amp_cond2,3.0.4,60.02317854089826,
either,&&&&&&,left,neutral,,,,,,,,0,90,90,54,,,,,,,,,,,,,,,,,,,,,LDT,left,0.08359943295363337,1,,,left,1,0.08359943295363337,,,,,,,,,,,,,,,,,,,,,,1078,2019_Mar_15_1437,mf_amp_cond2,3.0.4,60.02317854089826,
stindig,&&&&&&&,right,nonword,,,,,,,,0,91,91,80,,,,,,,,,,,,,,,,,,,,,LDT,left,0.15026973457133863,0,,,left,0,0.15026973457133863,,,,,,,,,,,,,,,,,,,,,,1078,2019_Mar_15_1437,mf_amp_cond2,3.0.4,60.02317854089826,
mih,&&&,right,nonword,,,,,,,,0,92,92,74,,,,,,,,,,,,,,,,,,,,,LDT,left,0.9838556968170451,0,,,left,0,0.9838556968170451,,,,,,,,,,,,,,,,,,,,,,1078,2019_Mar_15_1437,mf_amp_cond2,3.0.4,60.02317854089826,
neputized,&&&&&&&&&,right,nonword,,,,,,,,0,93,93,6,,,,,,,,,,,,,,,,,,,,,LDT,left,0.7337851360498462,0,,,left,0,0.7337851360498462,,,,,,,,,,,,,,,,,,,,,,1078,2019_Mar_15_1437,mf_amp_cond2,3.0.4,60.02317854089826,
could,&&&&&,left,neutral,,,,,,,,0,94,94,183,,,,,,,,,,,,,,,,,,,,,LDT,left,0.6837668544030748,1,,,left,1,0.6837668544030748,,,,,,,,,,,,,,,,,,,,,,1078,2019_Mar_15_1437,mf_amp_cond2,3.0.4,60.02317854089826,
clattening,&&&&&&&&&&,right,nonword,,,,,,,,0,95,95,9,,,,,,,,,,,,,,,,,,,,,LDT,right,0.5503874427377013,1,,,right,1,0.5503874427377013,,,,,,,,,,,,,,,,,,,,,,1078,2019_Mar_15_1437,mf_amp_cond2,3.0.4,60.02317854089826,
latter,&&&&&&,left,neutral,,,,,,,,0,96,96,37,,,,,,,,,,,,,,,,,,,,,LDT,right,0.6837918714008993,0,,,right,0,0.6837918714008993,,,,,,,,,,,,,,,,,,,,,,1078,2019_Mar_15_1437,mf_amp_cond2,3.0.4,60.02317854089826,
nomparisons,&&&&&&&&&&&,right,nonword,,,,,,,,0,97,97,52,,,,,,,,,,,,,,,,,,,,,LDT,right,0.5170558199897641,1,,,right,1,0.5170558199897641,,,,,,,,,,,,,,,,,,,,,,1078,2019_Mar_15_1437,mf_amp_cond2,3.0.4,60.02317854089826,
fontacts,&&&&&&&&,right,nonword,,,,,,,,0,98,98,73,,,,,,,,,,,,,,,,,,,,,LDT,right,0.48371200943074655,1,,,right,1,0.48371200943074655,,,,,,,,,,,,,,,,,,,,,,1078,2019_Mar_15_1437,mf_amp_cond2,3.0.4,60.02317854089826,
chressing,&&&&&&&&&,None,nonword,,,,,,,,0,99,99,190,,,,,,,,,,,,,,,,,,,,,LDT,right,0.617084365017945,0,,,right,0,0.617084365017945,,,,,,,,,,,,,,,,,,,,,,1078,2019_Mar_15_1437,mf_amp_cond2,3.0.4,60.02317854089826,
Oregoniuns,&&&&&&&&&&,right,nonword,,,,,,,,0,100,100,124,,,,,,,,,,,,,,,,,,,,,LDT,right,0.4336943692469504,1,,,right,1,0.4336943692469504,,,,,,,,,,,,,,,,,,,,,,1078,2019_Mar_15_1437,mf_amp_cond2,3.0.4,60.02317854089826,
tove,&&&&,right,nonword,,,,,,,,0,101,101,42,,,,,,,,,,,,,,,,,,,,,LDT,right,0.6170987978985067,1,,,right,1,0.6170987978985067,,,,,,,,,,,,,,,,,,,,,,1078,2019_Mar_15_1437,mf_amp_cond2,3.0.4,60.02317854089826,
unscothed,&&&&&&&&&,right,nonword,,,,,,,,0,102,102,191,,,,,,,,,,,,,,,,,,,,,LDT,left,0.5170571029011626,0,,,left,0,0.5170571029011626,,,,,,,,,,,,,,,,,,,,,,1078,2019_Mar_15_1437,mf_amp_cond2,3.0.4,60.02317854089826,
fonderland,&&&&&&&&&&,right,nonword,,,,,,,,0,103,103,96,,,,,,,,,,,,,,,,,,,,,LDT,left,0.7671234941808507,0,,,left,0,0.7671234941808507,,,,,,,,,,,,,,,,,,,,,,1078,2019_Mar_15_1437,mf_amp_cond2,3.0.4,60.02317854089826,
itself,&&&&&&,left,neutral,,,,,,,,0,104,104,198,,,,,,,,,,,,,,,,,,,,,LDT,left,0.5670683284843108,1,,,left,1,0.5670683284843108,,,,,,,,,,,,,,,,,,,,,,1078,2019_Mar_15_1437,mf_amp_cond2,3.0.4,60.02317854089826,
elsewhere,&&&&&&&&&,left,neutral,,,,,,,,0,105,105,121,,,,,,,,,,,,,,,,,,,,,LDT,left,1.0837238764797803,1,,,left,1,1.0837238764797803,,,,,,,,,,,,,,,,,,,,,,1078,2019_Mar_15_1437,mf_amp_cond2,3.0.4,60.02317854089826,
latterly,&&&&&&&&,left,neutral,,,,,,,,0,106,106,150,,,,,,,,,,,,,,,,,,,,,LDT,right,0.5337258008512435,0,,,right,0,0.5337258008512435,,,,,,,,,,,,,,,,,,,,,,1078,2019_Mar_15_1437,mf_amp_cond2,3.0.4,60.02317854089826,
men,&&&,left,loyalty.vice,,,,,,,,0,107,107,106,,,,,,,,,,,,,,,,,,,,,LDT,right,0.9671735281590372,0,,,right,0,0.9671735281590372,,,,,,,,,,,,,,,,,,,,,,1078,2019_Mar_15_1437,mf_amp_cond2,3.0.4,60.02317854089826,
noone,&&&&&,left,neutral,,,,,,,,0,108,108,14,,,,,,,,,,,,,,,,,,,,,LDT,right,0.6504233645828208,0,,,right,0,0.6504233645828208,,,,,,,,,,,,,,,,,,,,,,1078,2019_Mar_15_1437,mf_amp_cond2,3.0.4,60.02317854089826,
thadowed,&&&&&&&&,right,nonword,,,,,,,,0,109,109,159,,,,,,,,,,,,,,,,,,,,,LDT,left,0.5337171411229065,0,,,left,0,0.5337171411229065,,,,,,,,,,,,,,,,,,,,,,1078,2019_Mar_15_1437,mf_amp_cond2,3.0.4,60.02317854089826,
whither,&&&&&&&,left,neutral,,,,,,,,0,110,110,186,,,,,,,,,,,,,,,,,,,,,LDT,right,0.7171113064105157,0,,,right,0,0.7171113064105157,,,,,,,,,,,,,,,,,,,,,,1078,2019_Mar_15_1437,mf_amp_cond2,3.0.4,60.02317854089826,
nomaric,&&&&&&&,None,nonword,,,,,,,,0,111,111,137,,,,,,,,,,,,,,,,,,,,,LDT,left,0.767119324664236,0,,,left,0,0.767119324664236,,,,,,,,,,,,,,,,,,,,,,1078,2019_Mar_15_1437,mf_amp_cond2,3.0.4,60.02317854089826,
therefore,&&&&&&&&&,left,neutral,,,,,,,,0,112,112,185,,,,,,,,,,,,,,,,,,,,,LDT,left,0.9671796220500255,1,,,left,1,0.9671796220500255,,,,,,,,,,,,,,,,,,,,,,1078,2019_Mar_15_1437,mf_amp_cond2,3.0.4,60.02317854089826,
feleological,&&&&&&&&&&&&,right,nonword,,,,,,,,0,113,113,5,,,,,,,,,,,,,,,,,,,,,LDT,left,0.5003787830210058,0,,,left,0,0.5003787830210058,,,,,,,,,,,,,,,,,,,,,,1078,2019_Mar_15_1437,mf_amp_cond2,3.0.4,60.02317854089826,
gationwide,&&&&&&&&&&,right,nonword,,,,,,,,0,114,114,112,,,,,,,,,,,,,,,,,,,,,LDT,right,1.267269105926971,1,,,right,1,1.267269105926971,,,,,,,,,,,,,,,,,,,,,,1078,2019_Mar_15_1437,mf_amp_cond2,3.0.4,60.02317854089826,
forty,&&&&&,left,neutral,,,,,,,,0,115,115,133,,,,,,,,,,,,,,,,,,,,,LDT,left,0.683785777509911,1,,,left,1,0.683785777509911,,,,,,,,,,,,,,,,,,,,,,1078,2019_Mar_15_1437,mf_amp_cond2,3.0.4,60.02317854089826,
everything,&&&&&&&&&&,left,neutral,,,,,,,,0,116,116,77,,,,,,,,,,,,,,,,,,,,,LDT,left,0.8671536428591935,1,,,left,1,0.8671536428591935,,,,,,,,,,,,,,,,,,,,,,1078,2019_Mar_15_1437,mf_amp_cond2,3.0.4,60.02317854089826,
thru,&&&&,left,neutral,,,,,,,,0,117,117,156,,,,,,,,,,,,,,,,,,,,,LDT,right,0.48373830936907325,0,,,right,0,0.48373830936907325,,,,,,,,,,,,,,,,,,,,,,1078,2019_Mar_15_1437,mf_amp_cond2,3.0.4,60.02317854089826,
been,&&&&,left,neutral,,,,,,,,0,118,118,105,,,,,,,,,,,,,,,,,,,,,LDT,right,0.81714017217746,0,,,right,0,0.81714017217746,,,,,,,,,,,,,,,,,,,,,,1078,2019_Mar_15_1437,mf_amp_cond2,3.0.4,60.02317854089826,
myself,&&&&&&,left,neutral,,,,,,,,0,119,119,71,,,,,,,,,,,,,,,,,,,,,LDT,right,0.6504329865274485,0,,,right,0,0.6504329865274485,,,,,,,,,,,,,,,,,,,,,,1078,2019_Mar_15_1437,mf_amp_cond2,3.0.4,60.02317854089826,
asn,&&&,right,nonword,,,,,,,,0,120,120,24,,,,,,,,,,,,,,,,,,,,,LDT,right,0.5337033497053199,1,,,right,1,0.5337033497053199,,,,,,,,,,,,,,,,,,,,,,1078,2019_Mar_15_1437,mf_amp_cond2,3.0.4,60.02317854089826,
hate,&&&&,left,fairness.vice,,,,,,,,0,121,121,177,,,,,,,,,,,,,,,,,,,,,LDT,right,0.5003941781033063,0,,,right,0,0.5003941781033063,,,,,,,,,,,,,,,,,,,,,,1078,2019_Mar_15_1437,mf_amp_cond2,3.0.4,60.02317854089826,
Daptist,&&&&&&&,right,nonword,,,,,,,,0,122,122,192,,,,,,,,,,,,,,,,,,,,,LDT,right,0.9004980948666343,1,,,right,1,0.9004980948666343,,,,,,,,,,,,,,,,,,,,,,1078,2019_Mar_15_1437,mf_amp_cond2,3.0.4,60.02317854089826,
shot,&&&&,left,care.vice,,,,,,,,0,123,123,48,,,,,,,,,,,,,,,,,,,,,LDT,right,0.717105533243739,0,,,right,0,0.717105533243739,,,,,,,,,,,,,,,,,,,,,,1078,2019_Mar_15_1437,mf_amp_cond2,3.0.4,60.02317854089826,
rebels,&&&&&&,left,authority.vice,,,,,,,,0,124,124,32,,,,,,,,,,,,,,,,,,,,,LDT,right,0.6337504971306771,0,,,right,0,0.6337504971306771,,,,,,,,,,,,,,,,,,,,,,1078,2019_Mar_15_1437,mf_amp_cond2,3.0.4,60.02317854089826,
aubos,&&&&&,right,nonword,,,,,,,,0,125,125,79,,,,,,,,,,,,,,,,,,,,,LDT,right,1.1172107329330174,1,,,right,1,1.1172107329330174,,,,,,,,,,,,,,,,,,,,,,1078,2019_Mar_15_1437,mf_amp_cond2,3.0.4,60.02317854089826,
hope,&&&&,left,loyalty.virtue,,,,,,,,0,126,126,138,,,,,,,,,,,,,,,,,,,,,LDT,right,0.783795078707044,0,,,right,0,0.783795078707044,,,,,,,,,,,,,,,,,,,,,,1078,2019_Mar_15_1437,mf_amp_cond2,3.0.4,60.02317854089826,
glacenta,&&&&&&&&,right,nonword,,,,,,,,0,127,127,157,,,,,,,,,,,,,,,,,,,,,LDT,right,1.217255314506474,1,,,right,1,1.217255314506474,,,,,,,,,,,,,,,,,,,,,,1078,2019_Mar_15_1437,mf_amp_cond2,3.0.4,60.02317854089826,
peaceful,&&&&&&&&,left,authority.virtue,,,,,,,,0,128,128,122,,,,,,,,,,,,,,,,,,,,,LDT,right,0.1336173938761931,0,,,right,0,0.1336173938761931,,,,,,,,,,,,,,,,,,,,,,1078,2019_Mar_15_1437,mf_amp_cond2,3.0.4,60.02317854089826,
gazily,&&&&&&,right,nonword,,,,,,,,0,129,129,103,,,,,,,,,,,,,,,,,,,,,LDT,right,0.18359398051688913,1,,,right,1,0.18359398051688913,,,,,,,,,,,,,,,,,,,,,,1078,2019_Mar_15_1437,mf_amp_cond2,3.0.4,60.02317854089826,
benefit,&&&&&&&,left,fairness.virtue,,,,,,,,0,130,130,193,,,,,,,,,,,,,,,,,,,,,LDT,right,0.15028063939826097,0,,,right,0,0.15028063939826097,,,,,,,,,,,,,,,,,,,,,,1078,2019_Mar_15_1437,mf_amp_cond2,3.0.4,60.02317854089826,
mightingale,&&&&&&&&&&&,right,nonword,,,,,,,,0,131,131,136,,,,,,,,,,,,,,,,,,,,,LDT,right,0.15030597714940086,1,,,right,1,0.15030597714940086,,,,,,,,,,,,,,,,,,,,,,1078,2019_Mar_15_1437,mf_amp_cond2,3.0.4,60.02317854089826,
gun,&&&,left,authority.vice,,,,,,,,0,132,132,16,,,,,,,,,,,,,,,,,,,,,LDT,right,0.10028160159708932,0,,,right,0,0.10028160159708932,,,,,,,,,,,,,,,,,,,,,,1078,2019_Mar_15_1437,mf_amp_cond2,3.0.4,60.02317854089826,
wherever,&&&&&&&&,left,neutral,,,,,,,,0,133,133,78,,,,,,,,,,,,,,,,,,,,,LDT,right,0.08360039514082018,0,,,right,0,0.08360039514082018,,,,,,,,,,,,,,,,,,,,,,1078,2019_Mar_15_1437,mf_amp_cond2,3.0.4,60.02317854089826,
integrity,&&&&&&&&&,left,fairness.virtue,,,,,,,,0,134,134,19,,,,,,,,,,,,,,,,,,,,,LDT,right,0.233639524289174,0,,,right,0,0.233639524289174,,,,,,,,,,,,,,,,,,,,,,1078,2019_Mar_15_1437,mf_amp_cond2,3.0.4,60.02317854089826,
crilfully,&&&&&&&&&,right,nonword,,,,,,,,0,135,135,33,,,,,,,,,,,,,,,,,,,,,LDT,right,0.1336247706785798,1,,,right,1,0.1336247706785798,,,,,,,,,,,,,,,,,,,,,,1078,2019_Mar_15_1437,mf_amp_cond2,3.0.4,60.02317854089826,
ecgagement,&&&&&&&&&&,None,nonword,,,,,,,,0,136,136,35,,,,,,,,,,,,,,,,,,,,,LDT,right,0.1834214273840189,0,,,right,0,0.1834214273840189,,,,,,,,,,,,,,,,,,,,,,1078,2019_Mar_15_1437,mf_amp_cond2,3.0.4,60.02317854089826,
simplustic,&&&&&&&&&&,right,nonword,,,,,,,,0,137,137,119,,,,,,,,,,,,,,,,,,,,,LDT,right,0.18363471332122572,1,,,right,1,0.18363471332122572,,,,,,,,,,,,,,,,,,,,,,1078,2019_Mar_15_1437,mf_amp_cond2,3.0.4,60.02317854089826,
fraud,&&&&&,left,fairness.vice,,,,,,,,0,138,138,46,,,,,,,,,,,,,,,,,,,,,LDT,right,0.06692464109801222,0,,,right,0,0.06692464109801222,,,,,,,,,,,,,,,,,,,,,,1078,2019_Mar_15_1437,mf_amp_cond2,3.0.4,60.02317854089826,
each,&&&&,left,neutral,,,,,,,,0,139,139,168,,,,,,,,,,,,,,,,,,,,,LDT,right,0.26698654213396367,0,,,right,0,0.26698654213396367,,,,,,,,,,,,,,,,,,,,,,1078,2019_Mar_15_1437,mf_amp_cond2,3.0.4,60.02317854089826,
abuse,&&&&&,left,sanctity.vice,,,,,,,,0,140,140,91,,,,,,,,,,,,,,,,,,,,,LDT,right,0.18362284629256465,0,,,right,0,0.18362284629256465,,,,,,,,,,,,,,,,,,,,,,1078,2019_Mar_15_1437,mf_amp_cond2,3.0.4,60.02317854089826,
erks,&&&&,right,nonword,,,,,,,,0,141,141,102,,,,,,,,,,,,,,,,,,,,,LDT,right,0.13358660372614395,1,,,right,1,0.13358660372614395,,,,,,,,,,,,,,,,,,,,,,1078,2019_Mar_15_1437,mf_amp_cond2,3.0.4,60.02317854089826,
viscs,&&&&&,None,nonword,,,,,,,,0,142,142,15,,,,,,,,,,,,,,,,,,,,,LDT,right,0.23363824137777556,0,,,right,0,0.23363824137777556,,,,,,,,,,,,,,,,,,,,,,1078,2019_Mar_15_1437,mf_amp_cond2,3.0.4,60.02317854089826,
neneficence,&&&&&&&&&&&,right,nonword,,,,,,,,0,143,143,58,,,,,,,,,,,,,,,,,,,,,LDT,right,0.23363984502793755,1,,,right,1,0.23363984502793755,,,,,,,,,,,,,,,,,,,,,,1078,2019_Mar_15_1437,mf_amp_cond2,3.0.4,60.02317854089826,
promised,&&&&&&&&,left,loyalty.virtue,,,,,,,,0,144,144,47,,,,,,,,,,,,,,,,,,,,,LDT,right,0.4837209898978472,0,,,right,0,0.4837209898978472,,,,,,,,,,,,,,,,,,,,,,1078,2019_Mar_15_1437,mf_amp_cond2,3.0.4,60.02317854089826,
there,&&&&&,left,neutral,,,,,,,,0,145,145,1,,,,,,,,,,,,,,,,,,,,,LDT,left,0.4503967439522967,1,,,left,1,0.4503967439522967,,,,,,,,,,,,,,,,,,,,,,1078,2019_Mar_15_1437,mf_amp_cond2,3.0.4,60.02317854089826,
nonobservalt,&&&&&&&&&&&&,right,nonword,,,,,,,,0,146,146,184,,,,,,,,,,,,,,,,,,,,,LDT,left,0.21698782507155556,0,,,left,0,0.21698782507155556,,,,,,,,,,,,,,,,,,,,,,1078,2019_Mar_15_1437,mf_amp_cond2,3.0.4,60.02317854089826,
fifteen,&&&&&&&,left,neutral,,,,,,,,0,147,147,10,,,,,,,,,,,,,,,,,,,,,LDT,left,0.26696954340150114,1,,,left,1,0.26696954340150114,,,,,,,,,,,,,,,,,,,,,,1078,2019_Mar_15_1437,mf_amp_cond2,3.0.4,60.02317854089826,
increase,&&&&&&&&,left,care.virtue,,,,,,,,0,148,148,126,,,,,,,,,,,,,,,,,,,,,LDT,left,0.20031688197923359,1,,,left,1,0.20031688197923359,,,,,,,,,,,,,,,,,,,,,,1078,2019_Mar_15_1437,mf_amp_cond2,3.0.4,60.02317854089826,
else,&&&&,left,neutral,,,,,,,,0,149,149,45,,,,,,,,,,,,,,,,,,,,,LDT,left,0.08360264025395736,1,,,left,1,0.08360264025395736,,,,,,,,,,,,,,,,,,,,,,1078,2019_Mar_15_1437,mf_amp_cond2,3.0.4,60.02317854089826,
rorroborated,&&&&&&&&&&&&,right,nonword,,,,,,,,0,150,150,142,,,,,,,,,,,,,,,,,,,,,LDT,left,0.11694163983338512,0,,,left,0,0.11694163983338512,,,,,,,,,,,,,,,,,,,,,,1078,2019_Mar_15_1437,mf_amp_cond2,3.0.4,60.02317854089826,
fifty,&&&&&,left,neutral,,,,,,,,0,151,151,87,,,,,,,,,,,,,,,,,,,,,LDT,left,0.0335779439919861,1,,,left,1,0.0335779439919861,,,,,,,,,,,,,,,,,,,,,,1078,2019_Mar_15_1437,mf_amp_cond2,3.0.4,60.02317854089826,
progress,&&&&&&&&,left,authority.virtue,,,,,,,,0,152,152,175,,,,,,,,,,,,,,,,,,,,,LDT,left,0.033615790205658413,1,,,left,1,0.033615790205658413,,,,,,,,,,,,,,,,,,,,,,1078,2019_Mar_15_1437,mf_amp_cond2,3.0.4,60.02317854089826,
thabbily,&&&&&&&&,right,nonword,,,,,,,,0,153,153,85,,,,,,,,,,,,,,,,,,,,,LDT,left,0.033583396405447274,0,,,left,0,0.033583396405447274,,,,,,,,,,,,,,,,,,,,,,1078,2019_Mar_15_1437,mf_amp_cond2,3.0.4,60.02317854089826,
oam,&&&,right,nonword,,,,,,,,0,154,154,131,,,,,,,,,,,,,,,,,,,,,LDT,left,0.13360841340909246,0,,,left,0,0.13360841340909246,,,,,,,,,,,,,,,,,,,,,,1078,2019_Mar_15_1437,mf_amp_cond2,3.0.4,60.02317854089826,
become,&&&&&&,left,neutral,,,,,,,,0,155,155,89,,,,,,,,,,,,,,,,,,,,,LDT,left,0.016918226479901932,1,,,left,1,0.016918226479901932,,,,,,,,,,,,,,,,,,,,,,1078,2019_Mar_15_1437,mf_amp_cond2,3.0.4,60.02317854089826,
noped,&&&&&,right,nonword,,,,,,,,0,156,156,151,,,,,,,,,,,,,,,,,,,,,LDT,left,0.13361771460040472,0,,,left,0,0.13361771460040472,,,,,,,,,,,,,,,,,,,,,,1078,2019_Mar_15_1437,mf_amp_cond2,3.0.4,60.02317854089826,
reelectiob,&&&&&&&&&&,right,nonword,,,,,,,,0,157,157,187,,,,,,,,,,,,,,,,,,,,,LDT,left,0.00024952852982096374,0,,,left,0,0.00024952852982096374,,,,,,,,,,,,,,,,,,,,,,1078,2019_Mar_15_1437,mf_amp_cond2,3.0.4,60.02317854089826,
brudent,&&&&&&&,right,nonword,,,,,,,,0,158,158,114,,,,,,,,,,,,,,,,,,,,,LDT,left,0.01691181186470203,0,,,left,0,0.01691181186470203,,,,,,,,,,,,,,,,,,,,,,1078,2019_Mar_15_1437,mf_amp_cond2,3.0.4,60.02317854089826,
towards,&&&&&&&,left,neutral,,,,,,,,0,159,159,53,,,,,,,,,,,,,,,,,,,,,LDT,left,0.18362926090776455,1,,,left,1,0.18362926090776455,,,,,,,,,,,,,,,,,,,,,,1078,2019_Mar_15_1437,mf_amp_cond2,3.0.4,60.02317854089826,
edancipation,&&&&&&&&&&&&,None,nonword,,,,,,,,0,160,160,40,,,,,,,,,,,,,,,,,,,,,LDT,left,0.1002662065293407,0,,,left,0,0.1002662065293407,,,,,,,,,,,,,,,,,,,,,,1078,2019_Mar_15_1437,mf_amp_cond2,3.0.4,60.02317854089826,
laming,&&&&&&,right,nonword,,,,,,,,0,161,161,67,,,,,,,,,,,,,,,,,,,,,LDT,left,0.06694035690452438,0,,,left,0,0.06694035690452438,,,,,,,,,,,,,,,,,,,,,,1078,2019_Mar_15_1437,mf_amp_cond2,3.0.4,60.02317854089826,
pharing,&&&&&&&,right,nonword,,,,,,,,0,162,162,101,,,,,,,,,,,,,,,,,,,,,LDT,left,0.1002646028646268,0,,,left,0,0.1002646028646268,,,,,,,,,,,,,,,,,,,,,,1078,2019_Mar_15_1437,mf_amp_cond2,3.0.4,60.02317854089826,
least,&&&&&,left,neutral,,,,,,,,0,163,163,13,,,,,,,,,,,,,,,,,,,,,LDT,left,0.08359077322529629,1,,,left,1,0.08359077322529629,,,,,,,,,,,,,,,,,,,,,,1078,2019_Mar_15_1437,mf_amp_cond2,3.0.4,60.02317854089826,
ronviolence,&&&&&&&&&&&,right,nonword,,,,,,,,0,164,164,146,,,,,,,,,,,,,,,,,,,,,LDT,left,1.3006283115537371,0,,,left,0,1.3006283115537371,,,,,,,,,,,,,,,,,,,,,,1078,2019_Mar_15_1437,mf_amp_cond2,3.0.4,60.02317854089826,
suicide,&&&&&&&,left,care.vice,,,,,,,,0,165,165,83,,,,,,,,,,,,,,,,,,,,,LDT,left,0.3169759580196114,1,,,left,1,0.3169759580196114,,,,,,,,,,,,,,,,,,,,,,1078,2019_Mar_15_1437,mf_amp_cond2,3.0.4,60.02317854089826,
racist,&&&&&&,left,sanctity.vice,,,,,,,,0,166,166,129,,,,,,,,,,,,,,,,,,,,,LDT,left,0.23364850475627463,1,,,left,1,0.23364850475627463,,,,,,,,,,,,,,,,,,,,,,1078,2019_Mar_15_1437,mf_amp_cond2,3.0.4,60.02317854089826,
atson,&&&&&,right,nonword,,,,,,,,0,167,167,69,,,,,,,,,,,,,,,,,,,,,LDT,left,0.13361643167445436,0,,,left,0,0.13361643167445436,,,,,,,,,,,,,,,,,,,,,,1078,2019_Mar_15_1437,mf_amp_cond2,3.0.4,60.02317854089826,
eight,&&&&&,left,neutral,,,,,,,,0,168,168,97,,,,,,,,,,,,,,,,,,,,,LDT,left,0.20029988324677106,1,,,left,1,0.20029988324677106,,,,,,,,,,,,,,,,,,,,,,1078,2019_Mar_15_1437,mf_amp_cond2,3.0.4,60.02317854089826,
blamed,&&&&&&,left,loyalty.vice,,,,,,,,0,169,169,95,,,,,,,,,,,,,,,,,,,,,LDT,left,0.033593659798498265,1,,,left,1,0.033593659798498265,,,,,,,,,,,,,,,,,,,,,,1078,2019_Mar_15_1437,mf_amp_cond2,3.0.4,60.02317854089826,
slavery,&&&&&&&,left,loyalty.vice,,,,,,,,0,170,170,26,,,,,,,,,,,,,,,,,,,,,LDT,left,0.00025305656890850514,1,,,left,1,0.00025305656890850514,,,,,,,,,,,,,,,,,,,,,,1078,2019_Mar_15_1437,mf_amp_cond2,3.0.4,60.02317854089826,
ensure,&&&&&&,left,fairness.virtue,,,,,,,,0,171,171,195,,,,,,,,,,,,,,,,,,,,,LDT,left,0.0002504907170077786,1,,,left,1,0.0002504907170077786,,,,,,,,,,,,,,,,,,,,,,1078,2019_Mar_15_1437,mf_amp_cond2,3.0.4,60.02317854089826,
mostly,&&&&&&,left,neutral,,,,,,,,0,172,172,63,,,,,,,,,,,,,,,,,,,,,LDT,left,0.0002460004761815071,1,,,left,1,0.0002460004761815071,,,,,,,,,,,,,,,,,,,,,,1078,2019_Mar_15_1437,mf_amp_cond2,3.0.4,60.02317854089826,
disregord,&&&&&&&&&,right,nonword,,,,,,,,0,173,173,34,,,,,,,,,,,,,,,,,,,,,LDT,right,2.250891952222446,1,,,right,1,2.250891952222446,,,,,,,,,,,,,,,,,,,,,,1078,2019_Mar_15_1437,mf_amp_cond2,3.0.4,60.02317854089826,
improve,&&&&&&&,left,care.virtue,,,,,,,,0,174,174,60,,,,,,,,,,,,,,,,,,,,,LDT,right,0.6670882137841545,0,,,right,0,0.6670882137841545,,,,,,,,,,,,,,,,,,,,,,1078,2019_Mar_15_1437,mf_amp_cond2,3.0.4,60.02317854089826,
menizen,&&&&&&&,None,nonword,,,,,,,,0,175,175,135,,,,,,,,,,,,,,,,,,,,,LDT,right,1.8007463404646842,0,,,right,0,1.8007463404646842,,,,,,,,,,,,,,,,,,,,,,1078,2019_Mar_15_1437,mf_amp_cond2,3.0.4,60.02317854089826,
anyhow,&&&&&&,left,neutral,,,,,,,,0,176,176,99,,,,,,,,,,,,,,,,,,,,,LDT,right,0.9338528102525743,0,,,right,0,0.9338528102525743,,,,,,,,,,,,,,,,,,,,,,1078,2019_Mar_15_1437,mf_amp_cond2,3.0.4,60.02317854089826,
safe,&&&&,left,care.virtue,,,,,,,,0,177,177,36,,,,,,,,,,,,,,,,,,,,,LDT,right,0.6171161173697328,0,,,right,0,0.6171161173697328,,,,,,,,,,,,,,,,,,,,,,1078,2019_Mar_15_1437,mf_amp_cond2,3.0.4,60.02317854089826,
leact,&&&&&,right,nonword,,,,,,,,0,178,178,141,,,,,,,,,,,,,,,,,,,,,LDT,left,0.41703016150859185,0,,,left,0,0.41703016150859185,,,,,,,,,,,,,,,,,,,,,,1078,2019_Mar_15_1437,mf_amp_cond2,3.0.4,60.02317854089826,
discovars,&&&&&&&&&,right,nonword,,,,,,,,0,179,179,170,,,,,,,,,,,,,,,,,,,,,LDT,left,0.5504179121635389,0,,,left,0,0.5504179121635389,,,,,,,,,,,,,,,,,,,,,,1078,2019_Mar_15_1437,mf_amp_cond2,3.0.4,60.02317854089826,
terrorist,&&&&&&&&&,left,loyalty.vice,,,,,,,,0,180,180,43,,,,,,,,,,,,,,,,,,,,,LDT,left,0.5336924448783975,1,,,left,1,0.5336924448783975,,,,,,,,,,,,,,,,,,,,,,1078,2019_Mar_15_1437,mf_amp_cond2,3.0.4,60.02317854089826,
carvels,&&&&&&&,None,nonword,,,,,,,,0,181,181,189,,,,,,,,,,,,,,,,,,,,,LDT,left,0.45037172693992034,0,,,left,0,0.45037172693992034,,,,,,,,,,,,,,,,,,,,,,1078,2019_Mar_15_1437,mf_amp_cond2,3.0.4,60.02317854089826,
hence,&&&&&,left,neutral,,,,,,,,0,182,182,12,,,,,,,,,,,,,,,,,,,,,LDT,left,0.4670490846328903,1,,,left,1,0.4670490846328903,,,,,,,,,,,,,,,,,,,,,,1078,2019_Mar_15_1437,mf_amp_cond2,3.0.4,60.02317854089826,
besides,&&&&&&&,left,neutral,,,,,,,,0,183,183,68,,,,,,,,,,,,,,,,,,,,,LDT,left,0.3668614571506623,1,,,left,1,0.3668614571506623,,,,,,,,,,,,,,,,,,,,,,1078,2019_Mar_15_1437,mf_amp_cond2,3.0.4,60.02317854089826,
scalbel,&&&&&&&,right,nonword,,,,,,,,0,184,184,4,,,,,,,,,,,,,,,,,,,,,LDT,left,0.3503399745968636,0,,,left,0,0.3503399745968636,,,,,,,,,,,,,,,,,,,,,,1078,2019_Mar_15_1437,mf_amp_cond2,3.0.4,60.02317854089826,
less,&&&&,left,neutral,,,,,,,,0,185,185,152,,,,,,,,,,,,,,,,,,,,,LDT,left,0.36698108971177135,1,,,left,1,0.36698108971177135,,,,,,,,,,,,,,,,,,,,,,1078,2019_Mar_15_1437,mf_amp_cond2,3.0.4,60.02317854089826,
violence,&&&&&&&&,left,care.vice,,,,,,,,0,186,186,174,,,,,,,,,,,,,,,,,,,,,LDT,left,0.5003778208192671,1,,,left,1,0.5003778208192671,,,,,,,,,,,,,,,,,,,,,,1078,2019_Mar_15_1437,mf_amp_cond2,3.0.4,60.02317854089826,
Phintoism,&&&&&&&&&,right,nonword,,,,,,,,0,187,187,107,,,,,,,,,,,,,,,,,,,,,LDT,right,0.5337344605941325,1,,,right,1,0.5337344605941325,,,,,,,,,,,,,,,,,,,,,,1078,2019_Mar_15_1437,mf_amp_cond2,3.0.4,60.02317854089826,
scock,&&&&&,right,nonword,,,,,,,,0,188,188,167,,,,,,,,,,,,,,,,,,,,,LDT,right,0.5670737808977719,1,,,right,1,0.5670737808977719,,,,,,,,,,,,,,,,,,,,,,1078,2019_Mar_15_1437,mf_amp_cond2,3.0.4,60.02317854089826,
corruption,&&&&&&&&&&,left,sanctity.vice,,,,,,,,0,189,189,127,,,,,,,,,,,,,,,,,,,,,LDT,right,0.6504294584738091,0,,,right,0,0.6504294584738091,,,,,,,,,,,,,,,,,,,,,,1078,2019_Mar_15_1437,mf_amp_cond2,3.0.4,60.02317854089826,
drug,&&&&,left,sanctity.vice,,,,,,,,0,190,190,28,,,,,,,,,,,,,,,,,,,,,LDT,right,0.533726121604559,0,,,right,0,0.533726121604559,,,,,,,,,,,,,,,,,,,,,,1078,2019_Mar_15_1437,mf_amp_cond2,3.0.4,60.02317854089826,
abointment,&&&&&&&&&&,right,nonword,,,,,,,,0,191,191,166,,,,,,,,,,,,,,,,,,,,,LDT,right,0.4670484431699151,1,,,right,1,0.4670484431699151,,,,,,,,,,,,,,,,,,,,,,1078,2019_Mar_15_1437,mf_amp_cond2,3.0.4,60.02317854089826,
prosecution,&&&&&&&&&&&,left,authority.vice,,,,,,,,0,192,192,30,,,,,,,,,,,,,,,,,,,,,LDT,right,0.46706383825221565,0,,,right,0,0.46706383825221565,,,,,,,,,,,,,,,,,,,,,,1078,2019_Mar_15_1437,mf_amp_cond2,3.0.4,60.02317854089826,
commitment,&&&&&&&&&&,left,sanctity.virtue,,,,,,,,0,193,193,132,,,,,,,,,,,,,,,,,,,,,LDT,left,0.4503800659440458,1,,,left,1,0.4503800659440458,,,,,,,,,,,,,,,,,,,,,,1078,2019_Mar_15_1437,mf_amp_cond2,3.0.4,60.02317854089826,
lursuer,&&&&&&&,right,nonword,,,,,,,,0,194,194,23,,,,,,,,,,,,,,,,,,,,,LDT,left,0.26698718359693885,0,,,left,0,0.26698718359693885,,,,,,,,,,,,,,,,,,,,,,1078,2019_Mar_15_1437,mf_amp_cond2,3.0.4,60.02317854089826,
somehow,&&&&&&&,left,neutral,,,,,,,,0,195,195,8,,,,,,,,,,,,,,,,,,,,,LDT,left,1.6173540995805524,1,,,left,1,1.6173540995805524,,,,,,,,,,,,,,,,,,,,,,1078,2019_Mar_15_1437,mf_amp_cond2,3.0.4,60.02317854089826,
forced,&&&&&&,left,fairness.vice,,,,,,,,0,196,196,50,,,,,,,,,,,,,,,,,,,,,LDT,left,1.88407603885571,1,,,left,1,1.88407603885571,,,,,,,,,,,,,,,,,,,,,,1078,2019_Mar_15_1437,mf_amp_cond2,3.0.4,60.02317854089826,
injured,&&&&&&&,left,care.vice,,,,,,,,0,197,197,118,,,,,,,,,,,,,,,,,,,,,LDT,right,1.3504897558595985,0,,,right,0,1.3504897558595985,,,,,,,,,,,,,,,,,,,,,,1078,2019_Mar_15_1437,mf_amp_cond2,3.0.4,60.02317854089826,
refused,&&&&&&&,left,authority.vice,,,,,,,,0,198,198,120,,,,,,,,,,,,,,,,,,,,,LDT,right,0.5837360642472049,0,,,right,0,0.5837360642472049,,,,,,,,,,,,,,,,,,,,,,1078,2019_Mar_15_1437,mf_amp_cond2,3.0.4,60.02317854089826,
intelligence,&&&&&&&&&&&&,left,loyalty.virtue,,,,,,,,0,199,199,164,,,,,,,,,,,,,,,,,,,,,LDT,right,0.7171068161696894,0,,,right,0,0.7171068161696894,,,,,,,,,,,,,,,,,,,,,,1078,2019_Mar_15_1437,mf_amp_cond2,3.0.4,60.02317854089826,
,,,,,,,,,,,,,,,,,,,,,,,,,,,,,,,,,,,,,,,,,,,,2,18.44,,,,,,,,,,,,,,,,,,,,1078,2019_Mar_15_1437,mf_amp_cond2,3.0.4,60.02317854089826,
,,,,,,,,,,,,,,,,,,,,,,,,,,,,,,,,,,,,,,,,,,,,,,right,2.1175157478865003,,,,,,,,,,,,,,,,,,1078,2019_Mar_15_1437,mf_amp_cond2,3.0.4,60.02317854089826,
keyboard,&&&&,,,senk,,,,,,,,,,,0,0,0,2,,,,,,,,,,,,,,,,,AMP_prac,right,1.684061285239295,,,,,,,,,,,right,1.684061285239295,,,,,,,,,,,,,,,,1078,2019_Mar_15_1437,mf_amp_cond2,3.0.4,60.02317854089826,
scarf,&&&&&&&&,,,bisebell,,,,,,,,,,,0,1,1,3,,,,,,,,,,,,,,,,,AMP_prac,left,0.6004089317139005,,,,,,,,,,,left,0.6004089317139005,,,,,,,,,,,,,,,,1078,2019_Mar_15_1437,mf_amp_cond2,3.0.4,60.02317854089826,
car,&&&&&&&&,,,cemtuper,,,,,,,,,,,0,2,2,0,,,,,,,,,,,,,,,,,AMP_prac,right,0.3670263127569342,,,,,,,,,,,right,0.3670263127569342,,,,,,,,,,,,,,,,1078,2019_Mar_15_1437,mf_amp_cond2,3.0.4,60.02317854089826,
banana,&&&&&&,,,kacket,,,,,,,,,,,0,3,3,1,,,,,,,,,,,,,,,,,AMP_prac,right,1.3506122750113718,,,,,,,,,,,right,1.3506122750113718,,,,,,,,,,,,,,,,1078,2019_Mar_15_1437,mf_amp_cond2,3.0.4,60.02317854089826,
,,,,,,,,,,,,,,,,,,,,,,,,,,,,,,,,,,,,,,,,,,,,,,,,,,right,1.3506459517375333,,,,,,,,,,,,,,1078,2019_Mar_15_1437,mf_amp_cond2,3.0.4,60.02317854089826,
ban,&&&&&&&&&&&,right,loyalty.vice,hefurbished,,,,,,,,,,,,,,,0,0,0,305,,,,,,,,,,,,,AMP,left,1.3172774449340068,0,,,,,,,,,,,,,,left,0,1.3172774449340068,,,,,,,,,,,1078,2019_Mar_15_1437,mf_amp_cond2,3.0.4,60.02317854089826,
arrests,&&&&&&&&&&&,right,authority.vice,fornicalion,,,,,,,,,,,,,,,0,1,1,20,,,,,,,,,,,,,AMP,left,0.5170850064750994,0,,,,,,,,,,,,,,left,0,0.5170850064750994,,,,,,,,,,,1078,2019_Mar_15_1437,mf_amp_cond2,3.0.4,60.02317854089826,
promote,&&&&&&&&&&,left,sanctity.virtue,chonograph,,,,,,,,,,,,,,,0,2,2,317,,,,,,,,,,,,,AMP,right,0.46703112371324096,0,,,,,,,,,,,,,,right,0,0.46703112371324096,,,,,,,,,,,1078,2019_Mar_15_1437,mf_amp_cond2,3.0.4,60.02317854089826,
serial,&&&&&&&&,right,sanctity.vice,slending,,,,,,,,,,,,,,,0,3,3,1,,,,,,,,,,,,,AMP,right,0.4503665952361189,1,,,,,,,,,,,,,,right,1,0.4503665952361189,,,,,,,,,,,1078,2019_Mar_15_1437,mf_amp_cond2,3.0.4,60.02317854089826,
party,&&&&&&&&&&,left,loyalty.virtue,totalestic,,,,,,,,,,,,,,,0,4,4,101,,,,,,,,,,,,,AMP,right,0.4003486343281111,0,,,,,,,,,,,,,,right,0,0.4003486343281111,,,,,,,,,,,1078,2019_Mar_15_1437,mf_amp_cond2,3.0.4,60.02317854089826,
opportunity,&&&&&&&&,left,fairness.virtue,gournful,,,,,,,,,,,,,,,0,5,5,322,,,,,,,,,,,,,AMP,left,0.8504814168554731,1,,,,,,,,,,,,,,left,1,0.8504814168554731,,,,,,,,,,,1078,2019_Mar_15_1437,mf_amp_cond2,3.0.4,60.02317854089826,
terrorists,&&&&&,right,fairness.vice,mecan,,,,,,,,,,,,,,,0,6,6,250,,,,,,,,,,,,,AMP,right,0.6170680077484576,1,,,,,,,,,,,,,,right,1,0.6170680077484576,,,,,,,,,,,1078,2019_Mar_15_1437,mf_amp_cond2,3.0.4,60.02317854089826,
fighters,&&&&&&&,right,authority.vice,emports,,,,,,,,,,,,,,,0,7,7,78,,,,,,,,,,,,,AMP,left,0.6337488934805151,0,,,,,,,,,,,,,,left,0,0.6337488934805151,,,,,,,,,,,1078,2019_Mar_15_1437,mf_amp_cond2,3.0.4,60.02317854089826,
fair,&&&&&&&&&,left,fairness.virtue,seachwear,,,,,,,,,,,,,,,0,8,8,205,,,,,,,,,,,,,AMP,right,0.517053574876627,0,,,,,,,,,,,,,,right,0,0.517053574876627,,,,,,,,,,,1078,2019_Mar_15_1437,mf_amp_cond2,3.0.4,60.02317854089826,
penalty,&&&&&&,right,authority.vice,chared,,,,,,,,,,,,,,,0,9,9,61,,,,,,,,,,,,,AMP,right,0.6504307413997594,1,,,,,,,,,,,,,,right,1,0.6504307413997594,,,,,,,,,,,1078,2019_Mar_15_1437,mf_amp_cond2,3.0.4,60.02317854089826,
police,&&&&&&&&,right,authority.vice,sliptery,,,,,,,,,,,,,,,0,10,10,225,,,,,,,,,,,,,AMP,left,0.9504942460916936,0,,,,,,,,,,,,,,left,0,0.9504942460916936,,,,,,,,,,,1078,2019_Mar_15_1437,mf_amp_cond2,3.0.4,60.02317854089826,
opportunity,&&&&&,left,fairness.virtue,uller,,,,,,,,,,,,,,,0,11,11,176,,,,,,,,,,,,,AMP,right,0.5170375383313512,0,,,,,,,,,,,,,,right,0,0.5170375383313512,,,,,,,,,,,1078,2019_Mar_15_1437,mf_amp_cond2,3.0.4,60.02317854089826,
groups,&&&&&&&,right,loyalty.vice,sickyay,,,,,,,,,,,,,,,0,12,12,240,,,,,,,,,,,,,AMP,right,0.4003569733176846,1,,,,,,,,,,,,,,right,1,0.4003569733176846,,,,,,,,,,,1078,2019_Mar_15_1437,mf_amp_cond2,3.0.4,60.02317854089826,
protect,&&&&&&,left,fairness.virtue,erdest,,,,,,,,,,,,,,,0,13,13,316,,,,,,,,,,,,,AMP,right,0.31700514451949857,0,,,,,,,,,,,,,,right,0,0.31700514451949857,,,,,,,,,,,1078,2019_Mar_15_1437,mf_amp_cond2,3.0.4,60.02317854089826,
ability,&&&&&&&,left,authority.virtue,baklara,,,,,,,,,,,,,,,0,14,14,287,,,,,,,,,,,,,AMP,left,0.7004352316289442,1,,,,,,,,,,,,,,left,1,0.7004352316289442,,,,,,,,,,,1078,2019_Mar_15_1437,mf_amp_cond2,3.0.4,60.02317854089826,
failure,&&&&&&&&&&&&&,right,loyalty.vice,synchronazers,,,,,,,,,,,,,,,0,15,15,300,,,,,,,,,,,,,AMP,left,0.41701989813009277,0,,,,,,,,,,,,,,left,0,0.41701989813009277,,,,,,,,,,,1078,2019_Mar_15_1437,mf_amp_cond2,3.0.4,60.02317854089826,
energy,&&&&&&,left,sanctity.virtue,letish,,,,,,,,,,,,,,,0,16,16,268,,,,,,,,,,,,,AMP,right,0.31698269335902296,0,,,,,,,,,,,,,,right,0,0.31698269335902296,,,,,,,,,,,1078,2019_Mar_15_1437,mf_amp_cond2,3.0.4,60.02317854089826,
focomotive,&&&&&,None,nonword,tabin,,,,,,,,,,,,,,,0,17,17,39,,,,,,,,,,,,,AMP,right,0.8004698705481132,0,,,,,,,,,,,,,,right,0,0.8004698705481132,,,,,,,,,,,1078,2019_Mar_15_1437,mf_amp_cond2,3.0.4,60.02317854089826,
fighters,&&&&&&,right,authority.vice,openet,,,,,,,,,,,,,,,0,18,18,155,,,,,,,,,,,,,AMP,right,0.3836517120653298,1,,,,,,,,,,,,,,right,1,0.3836517120653298,,,,,,,,,,,1078,2019_Mar_15_1437,mf_amp_cond2,3.0.4,60.02317854089826,
proached,&&&&&&&,None,nonword,sickyay,,,,,,,,,,,,,,,0,19,19,269,,,,,,,,,,,,,AMP,right,0.5337168203986948,0,,,,,,,,,,,,,,right,0,0.5337168203986948,,,,,,,,,,,1078,2019_Mar_15_1437,mf_amp_cond2,3.0.4,60.02317854089826,
celebrated,&&&&&&&&&&,left,authority.virtue,chonograph,,,,,,,,,,,,,,,0,20,20,58,,,,,,,,,,,,,AMP,left,0.46702791641291697,1,,,,,,,,,,,,,,left,1,0.46702791641291697,,,,,,,,,,,1078,2019_Mar_15_1437,mf_amp_cond2,3.0.4,60.02317854089826,
trust,&&&&&&&&&,left,authority.virtue,faspberry,,,,,,,,,,,,,,,0,21,21,238,,,,,,,,,,,,,AMP,left,0.433701746063889,1,,,,,,,,,,,,,,left,1,0.433701746063889,,,,,,,,,,,1078,2019_Mar_15_1437,mf_amp_cond2,3.0.4,60.02317854089826,
ugeasily,&&&&&&&,None,nonword,smapper,,,,,,,,,,,,,,,0,22,22,94,,,,,,,,,,,,,AMP,left,0.46704170781595167,0,,,,,,,,,,,,,,left,0,0.46704170781595167,,,,,,,,,,,1078,2019_Mar_15_1437,mf_amp_cond2,3.0.4,60.02317854089826,
ittutable,&&&&&&&&&,None,nonword,gondensed,,,,,,,,,,,,,,,0,23,23,157,,,,,,,,,,,,,AMP,left,0.43369180340960156,0,,,,,,,,,,,,,,left,0,0.43369180340960156,,,,,,,,,,,1078,2019_Mar_15_1437,mf_amp_cond2,3.0.4,60.02317854089826,
strong,&&&&,left,loyalty.virtue,alar,,,,,,,,,,,,,,,0,24,24,166,,,,,,,,,,,,,AMP,left,0.6171090612915577,1,,,,,,,,,,,,,,left,1,0.6171090612915577,,,,,,,,,,,1078,2019_Mar_15_1437,mf_amp_cond2,3.0.4,60.02317854089826,
actively,&&&&&&,left,authority.virtue,openet,,,,,,,,,,,,,,,0,25,25,49,,,,,,,,,,,,,AMP,right,0.5337437617854448,0,,,,,,,,,,,,,,right,0,0.5337437617854448,,,,,,,,,,,1078,2019_Mar_15_1437,mf_amp_cond2,3.0.4,60.02317854089826,
victim,&&&&&&&&&&,right,care.vice,lorthwhile,,,,,,,,,,,,,,,0,26,26,97,,,,,,,,,,,,,AMP,left,0.4170208603172796,0,,,,,,,,,,,,,,left,0,0.4170208603172796,,,,,,,,,,,1078,2019_Mar_15_1437,mf_amp_cond2,3.0.4,60.02317854089826,
health,&&&&&&&&&&&,left,care.virtue,shoirmaster,,,,,,,,,,,,,,,0,27,27,68,,,,,,,,,,,,,AMP,right,0.3336799363751197,0,,,,,,,,,,,,,,right,0,0.3336799363751197,,,,,,,,,,,1078,2019_Mar_15_1437,mf_amp_cond2,3.0.4,60.02317854089826,
win,&&&&,left,fairness.virtue,alar,,,,,,,,,,,,,,,0,28,28,87,,,,,,,,,,,,,AMP,right,0.450356973320595,0,,,,,,,,,,,,,,right,0,0.450356973320595,,,,,,,,,,,1078,2019_Mar_15_1437,mf_amp_cond2,3.0.4,60.02317854089826,
photocalkodes,&&&&&&&&,None,nonword,bluently,,,,,,,,,,,,,,,0,29,29,50,,,,,,,,,,,,,AMP,left,0.4670224639849039,0,,,,,,,,,,,,,,left,0,0.4670224639849039,,,,,,,,,,,1078,2019_Mar_15_1437,mf_amp_cond2,3.0.4,60.02317854089826,
unpleasant,&&&&&&&,None,control,troubla,,,,,,,,,,,,,,,0,30,30,86,,,,,,,,,,,,,AMP,left,0.6170920625590952,0,,,,,,,,,,,,,,left,0,0.6170920625590952,,,,,,,,,,,1078,2019_Mar_15_1437,mf_amp_cond2,3.0.4,60.02317854089826,
free,&&&&&&&&&&&,left,fairness.virtue,lempestuous,,,,,,,,,,,,,,,0,31,31,170,,,,,,,,,,,,,AMP,right,0.46702695421117824,0,,,,,,,,,,,,,,right,0,0.46702695421117824,,,,,,,,,,,1078,2019_Mar_15_1437,mf_amp_cond2,3.0.4,60.02317854089826,
illegal,&&&&&&&&,right,fairness.vice,suggists,,,,,,,,,,,,,,,0,32,32,180,,,,,,,,,,,,,AMP,right,0.43368859609472565,1,,,,,,,,,,,,,,right,1,0.43368859609472565,,,,,,,,,,,1078,2019_Mar_15_1437,mf_amp_cond2,3.0.4,60.02317854089826,
restore,&&&&&&,left,care.virtue,letish,,,,,,,,,,,,,,,0,33,33,37,,,,,,,,,,,,,AMP,left,0.5337248386640567,1,,,,,,,,,,,,,,left,1,0.5337248386640567,,,,,,,,,,,1078,2019_Mar_15_1437,mf_amp_cond2,3.0.4,60.02317854089826,
conspiracy,&&&&&&&,right,sanctity.vice,allears,,,,,,,,,,,,,,,0,34,34,34,,,,,,,,,,,,,AMP,left,0.4170240676321555,0,,,,,,,,,,,,,,left,0,0.4170240676321555,,,,,,,,,,,1078,2019_Mar_15_1437,mf_amp_cond2,3.0.4,60.02317854089826,
scandal,&&&&&&,right,sanctity.vice,sgrawl,,,,,,,,,,,,,,,0,35,35,212,,,,,,,,,,,,,AMP,left,0.4170144457166316,0,,,,,,,,,,,,,,left,0,0.4170144457166316,,,,,,,,,,,1078,2019_Mar_15_1437,mf_amp_cond2,3.0.4,60.02317854089826,
peace,&&&&&&&&&&&,left,care.virtue,lempestuous,,,,,,,,,,,,,,,0,36,36,57,,,,,,,,,,,,,AMP,right,0.4670577443612274,0,,,,,,,,,,,,,,right,0,0.4670577443612274,,,,,,,,,,,1078,2019_Mar_15_1437,mf_amp_cond2,3.0.4,60.02317854089826,
interests,&&&&&&&&&&&&,left,fairness.virtue,quarterbocks,,,,,,,,,,,,,,,0,37,37,26,,,,,,,,,,,,,AMP,left,0.35034895506396424,1,,,,,,,,,,,,,,left,1,0.35034895506396424,,,,,,,,,,,1078,2019_Mar_15_1437,mf_amp_cond2,3.0.4,60.02317854089826,
free,&&&&&&&&,left,fairness.virtue,nuckheap,,,,,,,,,,,,,,,0,38,38,258,,,,,,,,,,,,,AMP,right,0.267017973746988,0,,,,,,,,,,,,,,right,0,0.267017973746988,,,,,,,,,,,1078,2019_Mar_15_1437,mf_amp_cond2,3.0.4,60.02317854089826,
unpleasant,&&&&&&&&&&,None,control,frojecting,,,,,,,,,,,,,,,0,39,39,65,,,,,,,,,,,,,AMP,right,0.38365780594176613,0,,,,,,,,,,,,,,right,0,0.38365780594176613,,,,,,,,,,,1078,2019_Mar_15_1437,mf_amp_cond2,3.0.4,60.02317854089826,
voter,&&&&&&,right,fairness.vice,squets,,,,,,,,,,,,,,,0,40,40,271,,,,,,,,,,,,,AMP,left,0.6837610812362982,0,,,,,,,,,,,,,,left,0,0.6837610812362982,,,,,,,,,,,1078,2019_Mar_15_1437,mf_amp_cond2,3.0.4,60.02317854089826,
ittutable,&&&&&,None,nonword,ablow,,,,,,,,,,,,,,,0,41,41,232,,,,,,,,,,,,,AMP,left,0.366976599485497,0,,,,,,,,,,,,,,left,0,0.366976599485497,,,,,,,,,,,1078,2019_Mar_15_1437,mf_amp_cond2,3.0.4,60.02317854089826,
help,&&&&&&&&&&&,left,care.virtue,egpeditious,,,,,,,,,,,,,,,0,42,42,210,,,,,,,,,,,,,AMP,left,0.7838002103962936,1,,,,,,,,,,,,,,left,1,0.7838002103962936,,,,,,,,,,,1078,2019_Mar_15_1437,mf_amp_cond2,3.0.4,60.02317854089826,
praise,&&&&&&&&&,left,authority.virtue,faspberry,,,,,,,,,,,,,,,0,43,43,13,,,,,,,,,,,,,AMP,left,0.7671263807424111,1,,,,,,,,,,,,,,left,1,0.7671263807424111,,,,,,,,,,,1078,2019_Mar_15_1437,mf_amp_cond2,3.0.4,60.02317854089826,
fangsters,&&&&&,None,nonword,mecan,,,,,,,,,,,,,,,0,44,44,63,,,,,,,,,,,,,AMP,left,1.0173390252311947,0,,,,,,,,,,,,,,left,0,1.0173390252311947,,,,,,,,,,,1078,2019_Mar_15_1437,mf_amp_cond2,3.0.4,60.02317854089826,
photocalkodes,&&&&&&&,None,nonword,nackers,,,,,,,,,,,,,,,0,45,45,290,,,,,,,,,,,,,AMP,right,2.2509516081481706,0,,,,,,,,,,,,,,right,0,2.2509516081481706,,,,,,,,,,,1078,2019_Mar_15_1437,mf_amp_cond2,3.0.4,60.02317854089826,
critics,&&&&&&&&&&&&,right,loyalty.vice,bruthfulness,,,,,,,,,,,,,,,0,46,46,69,,,,,,,,,,,,,AMP,left,0.7337803250993602,0,,,,,,,,,,,,,,left,0,0.7337803250993602,,,,,,,,,,,1078,2019_Mar_15_1437,mf_amp_cond2,3.0.4,60.02317854089826,
embrace,&&&&&&&&&&,left,authority.virtue,imebreaker,,,,,,,,,,,,,,,0,47,47,320,,,,,,,,,,,,,AMP,left,0.7337710239080479,1,,,,,,,,,,,,,,left,1,0.7337710239080479,,,,,,,,,,,1078,2019_Mar_15_1437,mf_amp_cond2,3.0.4,60.02317854089826,
critics,&&&&&&&,right,loyalty.vice,emports,,,,,,,,,,,,,,,0,48,48,112,,,,,,,,,,,,,AMP,left,0.4336911619466264,0,,,,,,,,,,,,,,left,0,0.4336911619466264,,,,,,,,,,,1078,2019_Mar_15_1437,mf_amp_cond2,3.0.4,60.02317854089826,
victims,&&&&&&&&&&&,right,care.vice,sowntrodden,,,,,,,,,,,,,,,0,49,49,206,,,,,,,,,,,,,AMP,left,0.43369340705976356,0,,,,,,,,,,,,,,left,0,0.43369340705976356,,,,,,,,,,,1078,2019_Mar_15_1437,mf_amp_cond2,3.0.4,60.02317854089826,
critics,&&&&&&&&&,right,loyalty.vice,gondensed,,,,,,,,,,,,,,,0,50,50,218,,,,,,,,,,,,,AMP,left,0.4670320859004278,0,,,,,,,,,,,,,,left,0,0.4670320859004278,,,,,,,,,,,1078,2019_Mar_15_1437,mf_amp_cond2,3.0.4,60.02317854089826,
penalty,&&&&&&&&&&&,right,authority.vice,cromiscuity,,,,,,,,,,,,,,,0,51,51,85,,,,,,,,,,,,,AMP,left,0.48370302897819784,0,,,,,,,,,,,,,,left,0,0.48370302897819784,,,,,,,,,,,1078,2019_Mar_15_1437,mf_amp_cond2,3.0.4,60.02317854089826,
loyalty,&&&&&&&&&,left,loyalty.virtue,gondensed,,,,,,,,,,,,,,,0,52,52,275,,,,,,,,,,,,,AMP,left,0.5337453654501587,1,,,,,,,,,,,,,,left,1,0.5337453654501587,,,,,,,,,,,1078,2019_Mar_15_1437,mf_amp_cond2,3.0.4,60.02317854089826,
fighters,&&&&&&,right,authority.vice,sgrawl,,,,,,,,,,,,,,,0,53,53,299,,,,,,,,,,,,,AMP,left,0.9671991866343888,0,,,,,,,,,,,,,,left,0,0.9671991866343888,,,,,,,,,,,1078,2019_Mar_15_1437,mf_amp_cond2,3.0.4,60.02317854089826,
useful,&&&&&&&&&&&,left,authority.virtue,sowntrodden,,,,,,,,,,,,,,,0,54,54,89,,,,,,,,,,,,,AMP,right,0.8171677550126333,0,,,,,,,,,,,,,,right,0,0.8171677550126333,,,,,,,,,,,1078,2019_Mar_15_1437,mf_amp_cond2,3.0.4,60.02317854089826,
prison,&&&&&&&&&,right,fairness.vice,gaultless,,,,,,,,,,,,,,,0,55,55,0,,,,,,,,,,,,,AMP,left,0.4003470306779491,0,,,,,,,,,,,,,,left,0,0.4003470306779491,,,,,,,,,,,1078,2019_Mar_15_1437,mf_amp_cond2,3.0.4,60.02317854089826,
focomotive,&&&&&&&&&&&,None,nonword,presentkess,,,,,,,,,,,,,,,0,56,56,182,,,,,,,,,,,,,AMP,left,0.46703433102811687,0,,,,,,,,,,,,,,left,0,0.46703433102811687,,,,,,,,,,,1078,2019_Mar_15_1437,mf_amp_cond2,3.0.4,60.02317854089826,
scandal,&&&&&&&&&&&,right,sanctity.vice,lempestuous,,,,,,,,,,,,,,,0,57,57,249,,,,,,,,,,,,,AMP,left,0.4336937277985271,0,,,,,,,,,,,,,,left,0,0.4336937277985271,,,,,,,,,,,1078,2019_Mar_15_1437,mf_amp_cond2,3.0.4,60.02317854089826,
dormandi,&&&&&&&&&,None,nonword,faspberry,,,,,,,,,,,,,,,0,58,58,130,,,,,,,,,,,,,AMP,left,0.6004073280637385,0,,,,,,,,,,,,,,left,0,0.6004073280637385,,,,,,,,,,,1078,2019_Mar_15_1437,mf_amp_cond2,3.0.4,60.02317854089826,
pleasant,&&&&&&,None,control,sgrawl,,,,,,,,,,,,,,,0,59,59,16,,,,,,,,,,,,,AMP,left,0.33366742786893155,0,,,,,,,,,,,,,,left,0,0.33366742786893155,,,,,,,,,,,1078,2019_Mar_15_1437,mf_amp_cond2,3.0.4,60.02317854089826,
harassment,&&&&&&,right,sanctity.vice,squets,,,,,,,,,,,,,,,0,60,60,163,,,,,,,,,,,,,AMP,left,0.3836879546288401,0,,,,,,,,,,,,,,left,0,0.3836879546288401,,,,,,,,,,,1078,2019_Mar_15_1437,mf_amp_cond2,3.0.4,60.02317854089826,
friends,&&&&&&&&,left,loyalty.virtue,slending,,,,,,,,,,,,,,,0,61,61,134,,,,,,,,,,,,,AMP,left,0.7171289465914015,1,,,,,,,,,,,,,,left,1,0.7171289465914015,,,,,,,,,,,1078,2019_Mar_15_1437,mf_amp_cond2,3.0.4,60.02317854089826,
penalty,&&&&&&&,right,authority.vice,baklara,,,,,,,,,,,,,,,0,62,62,219,,,,,,,,,,,,,AMP,left,0.4503624257486081,0,,,,,,,,,,,,,,left,0,0.4503624257486081,,,,,,,,,,,1078,2019_Mar_15_1437,mf_amp_cond2,3.0.4,60.02317854089826,
black,&&&&&&&,right,loyalty.vice,smapper,,,,,,,,,,,,,,,0,63,63,326,,,,,,,,,,,,,AMP,left,0.48370238751522265,0,,,,,,,,,,,,,,left,0,0.48370238751522265,,,,,,,,,,,1078,2019_Mar_15_1437,mf_amp_cond2,3.0.4,60.02317854089826,
friends,&&&&&,left,loyalty.virtue,ablow,,,,,,,,,,,,,,,0,64,64,247,,,,,,,,,,,,,AMP,left,0.617067687009694,1,,,,,,,,,,,,,,left,1,0.617067687009694,,,,,,,,,,,1078,2019_Mar_15_1437,mf_amp_cond2,3.0.4,60.02317854089826,
interests,&&&&&&&&&&,left,fairness.virtue,neutralust,,,,,,,,,,,,,,,0,65,65,301,,,,,,,,,,,,,AMP,left,0.4503698025509948,1,,,,,,,,,,,,,,left,1,0.4503698025509948,,,,,,,,,,,1078,2019_Mar_15_1437,mf_amp_cond2,3.0.4,60.02317854089826,
freedom,&&&&,left,sanctity.virtue,ning,,,,,,,,,,,,,,,0,66,66,263,,,,,,,,,,,,,AMP,left,1.0505372240149882,1,,,,,,,,,,,,,,left,1,1.0505372240149882,,,,,,,,,,,1078,2019_Mar_15_1437,mf_amp_cond2,3.0.4,60.02317854089826,
growth,&&&&&&,left,care.virtue,openet,,,,,,,,,,,,,,,0,67,67,241,,,,,,,,,,,,,AMP,left,0.4836972558259731,1,,,,,,,,,,,,,,left,1,0.4836972558259731,,,,,,,,,,,1078,2019_Mar_15_1437,mf_amp_cond2,3.0.4,60.02317854089826,
killed,&&&&&&&&&&&,right,care.vice,hefurbished,,,,,,,,,,,,,,,0,68,68,70,,,,,,,,,,,,,AMP,left,0.6671061747038038,0,,,,,,,,,,,,,,left,0,0.6671061747038038,,,,,,,,,,,1078,2019_Mar_15_1437,mf_amp_cond2,3.0.4,60.02317854089826,
died,&&&&&&&,right,care.vice,sickyay,,,,,,,,,,,,,,,0,69,69,67,,,,,,,,,,,,,AMP,left,1.2339628209010698,0,,,,,,,,,,,,,,left,0,1.2339628209010698,,,,,,,,,,,1078,2019_Mar_15_1437,mf_amp_cond2,3.0.4,60.02317854089826,
war,&&&&&&&&,right,sanctity.vice,divility,,,,,,,,,,,,,,,0,70,70,259,,,,,,,,,,,,,AMP,right,0.41702374690794386,1,,,,,,,,,,,,,,right,1,0.41702374690794386,,,,,,,,,,,1078,2019_Mar_15_1437,mf_amp_cond2,3.0.4,60.02317854089826,
support,&&&&&,left,loyalty.virtue,saned,,,,,,,,,,,,,,,0,71,71,138,,,,,,,,,,,,,AMP,right,1.1004583242465742,0,,,,,,,,,,,,,,right,0,1.1004583242465742,,,,,,,,,,,1078,2019_Mar_15_1437,mf_amp_cond2,3.0.4,60.02317854089826,
penalty,&&&&&&&&,right,authority.vice,hescribe,,,,,,,,,,,,,,,0,72,72,277,,,,,,,,,,,,,AMP,right,0.5003775000950554,1,,,,,,,,,,,,,,right,1,0.5003775000950554,,,,,,,,,,,1078,2019_Mar_15_1437,mf_amp_cond2,3.0.4,60.02317854089826,
sexual,&&&&&&&,right,sanctity.vice,emports,,,,,,,,,,,,,,,0,73,73,193,,,,,,,,,,,,,AMP,right,0.5003884049510816,1,,,,,,,,,,,,,,right,1,0.5003884049510816,,,,,,,,,,,1078,2019_Mar_15_1437,mf_amp_cond2,3.0.4,60.02317854089826,
agreement,&&&&&&&&&,left,fairness.virtue,seachwear,,,,,,,,,,,,,,,0,74,74,314,,,,,,,,,,,,,AMP,left,0.5170394627202768,1,,,,,,,,,,,,,,left,1,0.5170394627202768,,,,,,,,,,,1078,2019_Mar_15_1437,mf_amp_cond2,3.0.4,60.02317854089826,
fair,&&&&&&&&&,left,fairness.virtue,taxpayung,,,,,,,,,,,,,,,0,75,75,80,,,,,,,,,,,,,AMP,left,0.5337290081806714,1,,,,,,,,,,,,,,left,1,0.5337290081806714,,,,,,,,,,,1078,2019_Mar_15_1437,mf_amp_cond2,3.0.4,60.02317854089826,
restore,&&&&&&&&&&&,left,care.virtue,cromiscuity,,,,,,,,,,,,,,,0,76,76,245,,,,,,,,,,,,,AMP,left,0.4670561407110654,1,,,,,,,,,,,,,,left,1,0.4670561407110654,,,,,,,,,,,1078,2019_Mar_15_1437,mf_amp_cond2,3.0.4,60.02317854089826,
serial,&&&&&&&&&&&,right,sanctity.vice,shoirmaster,,,,,,,,,,,,,,,0,77,77,297,,,,,,,,,,,,,AMP,left,0.28365267426124774,0,,,,,,,,,,,,,,left,0,0.28365267426124774,,,,,,,,,,,1078,2019_Mar_15_1437,mf_amp_cond2,3.0.4,60.02317854089826,
army,&&&&&&,right,loyalty.vice,chared,,,,,,,,,,,,,,,0,78,78,175,,,,,,,,,,,,,AMP,left,0.417037859064294,0,,,,,,,,,,,,,,left,0,0.417037859064294,,,,,,,,,,,1078,2019_Mar_15_1437,mf_amp_cond2,3.0.4,60.02317854089826,
war,&&&&&&&,right,sanctity.vice,dramens,,,,,,,,,,,,,,,0,79,79,45,,,,,,,,,,,,,AMP,left,0.4670282371371286,0,,,,,,,,,,,,,,left,0,0.4670282371371286,,,,,,,,,,,1078,2019_Mar_15_1437,mf_amp_cond2,3.0.4,60.02317854089826,
arrests,&&&&&&&&&&,right,authority.vice,imebreaker,,,,,,,,,,,,,,,0,80,80,185,,,,,,,,,,,,,AMP,left,0.25030148689984344,0,,,,,,,,,,,,,,left,0,0.25030148689984344,,,,,,,,,,,1078,2019_Mar_15_1437,mf_amp_cond2,3.0.4,60.02317854089826,
victim,&&&&&&&&&&&&,right,care.vice,iptervention,,,,,,,,,,,,,,,0,81,81,327,,,,,,,,,,,,,AMP,left,0.5503864805650664,0,,,,,,,,,,,,,,left,0,0.5503864805650664,,,,,,,,,,,1078,2019_Mar_15_1437,mf_amp_cond2,3.0.4,60.02317854089826,
voter,&&&&&,right,fairness.vice,ablow,,,,,,,,,,,,,,,0,82,82,31,,,,,,,,,,,,,AMP,left,0.3003123917442281,0,,,,,,,,,,,,,,left,0,0.3003123917442281,,,,,,,,,,,1078,2019_Mar_15_1437,mf_amp_cond2,3.0.4,60.02317854089826,
good,&&&&&&&&&&&&,left,care.virtue,iptervention,,,,,,,,,,,,,,,0,83,83,181,,,,,,,,,,,,,AMP,right,0.5837120094511192,0,,,,,,,,,,,,,,right,0,0.5837120094511192,,,,,,,,,,,1078,2019_Mar_15_1437,mf_amp_cond2,3.0.4,60.02317854089826,
killed,&&&&&&&&&&&&,right,care.vice,quarterbocks,,,,,,,,,,,,,,,0,84,84,285,,,,,,,,,,,,,AMP,left,0.533712650911184,0,,,,,,,,,,,,,,left,0,0.533712650911184,,,,,,,,,,,1078,2019_Mar_15_1437,mf_amp_cond2,3.0.4,60.02317854089826,
black,&&&&&&&,right,loyalty.vice,vurtain,,,,,,,,,,,,,,,0,85,85,54,,,,,,,,,,,,,AMP,right,0.3668694754160242,1,,,,,,,,,,,,,,right,1,0.3668694754160242,,,,,,,,,,,1078,2019_Mar_15_1437,mf_amp_cond2,3.0.4,60.02317854089826,
ugeasily,&&&&&&&&,None,nonword,drumbled,,,,,,,,,,,,,,,0,86,86,202,,,,,,,,,,,,,AMP,left,0.41702214324322995,0,,,,,,,,,,,,,,left,0,0.41702214324322995,,,,,,,,,,,1078,2019_Mar_15_1437,mf_amp_cond2,3.0.4,60.02317854089826,
dormandi,&&&&&&&&,None,nonword,slending,,,,,,,,,,,,,,,0,87,87,167,,,,,,,,,,,,,AMP,left,0.45036050135968253,0,,,,,,,,,,,,,,left,0,0.45036050135968253,,,,,,,,,,,1078,2019_Mar_15_1437,mf_amp_cond2,3.0.4,60.02317854089826,
actively,&&&&&&&,left,authority.virtue,nackers,,,,,,,,,,,,,,,0,88,88,90,,,,,,,,,,,,,AMP,right,1.1338839211384766,0,,,,,,,,,,,,,,right,0,1.1338839211384766,,,,,,,,,,,1078,2019_Mar_15_1437,mf_amp_cond2,3.0.4,60.02317854089826,
threatened,&&&&&&&&&&,right,fairness.vice,ammessment,,,,,,,,,,,,,,,0,89,89,100,,,,,,,,,,,,,AMP,left,0.31698493847216014,0,,,,,,,,,,,,,,left,0,0.31698493847216014,,,,,,,,,,,1078,2019_Mar_15_1437,mf_amp_cond2,3.0.4,60.02317854089826,
death,&&&&&&&&&&&,right,care.vice,fornicalion,,,,,,,,,,,,,,,0,90,90,310,,,,,,,,,,,,,AMP,left,0.6004345901601482,0,,,,,,,,,,,,,,left,0,0.6004345901601482,,,,,,,,,,,1078,2019_Mar_15_1437,mf_amp_cond2,3.0.4,60.02317854089826,
energy,&&&&&&&&&&&&,left,sanctity.virtue,gusinesslike,,,,,,,,,,,,,,,0,91,91,5,,,,,,,,,,,,,AMP,right,0.383676087600179,0,,,,,,,,,,,,,,right,0,0.383676087600179,,,,,,,,,,,1078,2019_Mar_15_1437,mf_amp_cond2,3.0.4,60.02317854089826,
terrorists,&&&&&&&&&&&,right,fairness.vice,fornicalion,,,,,,,,,,,,,,,0,92,92,113,,,,,,,,,,,,,AMP,left,0.400353445293149,0,,,,,,,,,,,,,,left,0,0.400353445293149,,,,,,,,,,,1078,2019_Mar_15_1437,mf_amp_cond2,3.0.4,60.02317854089826,
praised,&&&&&&,left,loyalty.virtue,erdest,,,,,,,,,,,,,,,0,93,93,10,,,,,,,,,,,,,AMP,left,0.4670394627173664,1,,,,,,,,,,,,,,left,1,0.4670394627173664,,,,,,,,,,,1078,2019_Mar_15_1437,mf_amp_cond2,3.0.4,60.02317854089826,
pafer,&&&&&&&,None,nonword,troubla,,,,,,,,,,,,,,,0,94,94,72,,,,,,,,,,,,,AMP,left,1.150545883749146,0,,,,,,,,,,,,,,left,0,1.150545883749146,,,,,,,,,,,1078,2019_Mar_15_1437,mf_amp_cond2,3.0.4,60.02317854089826,
good,&&&&&&&&&,left,care.virtue,tenuflect,,,,,,,,,,,,,,,0,95,95,22,,,,,,,,,,,,,AMP,right,0.20029699668521062,0,,,,,,,,,,,,,,right,0,0.20029699668521062,,,,,,,,,,,1078,2019_Mar_15_1437,mf_amp_cond2,3.0.4,60.02317854089826,
trust,&&&&&&&&&,left,authority.virtue,tenuflect,,,,,,,,,,,,,,,0,96,96,324,,,,,,,,,,,,,AMP,right,0.3003188063739799,0,,,,,,,,,,,,,,right,0,0.3003188063739799,,,,,,,,,,,1078,2019_Mar_15_1437,mf_amp_cond2,3.0.4,60.02317854089826,
army,&&&&&&&&&&&&,right,loyalty.vice,gusinesslike,,,,,,,,,,,,,,,0,97,97,295,,,,,,,,,,,,,AMP,left,0.3503367672819877,0,,,,,,,,,,,,,,left,0,0.3503367672819877,,,,,,,,,,,1078,2019_Mar_15_1437,mf_amp_cond2,3.0.4,60.02317854089826,
prison,&&&&&&&,right,fairness.vice,dramens,,,,,,,,,,,,,,,0,98,98,256,,,,,,,,,,,,,AMP,left,1.0505343374388758,0,,,,,,,,,,,,,,left,0,1.0505343374388758,,,,,,,,,,,1078,2019_Mar_15_1437,mf_amp_cond2,3.0.4,60.02317854089826,
health,&&&&&&&&&&,left,care.virtue,ammessment,,,,,,,,,,,,,,,0,99,99,288,,,,,,,,,,,,,AMP,right,0.36704363221360836,0,,,,,,,,,,,,,,right,0,0.36704363221360836,,,,,,,,,,,1078,2019_Mar_15_1437,mf_amp_cond2,3.0.4,60.02317854089826,
groups,&&&&,right,loyalty.vice,spag,,,,,,,,,,,,,,,0,100,100,12,,,,,,,,,,,,,AMP,right,0.6170943076722324,1,,,,,,,,,,,,,,right,1,0.6170943076722324,,,,,,,,,,,1078,2019_Mar_15_1437,mf_amp_cond2,3.0.4,60.02317854089826,
torture,&&&&&&&&&&,right,care.vice,supervuned,,,,,,,,,,,,,,,0,101,101,136,,,,,,,,,,,,,AMP,left,0.3503399745968636,0,,,,,,,,,,,,,,left,0,0.3503399745968636,,,,,,,,,,,1078,2019_Mar_15_1437,mf_amp_cond2,3.0.4,60.02317854089826,
accused,&&&&&&&&&&&,right,fairness.vice,cromiscuity,,,,,,,,,,,,,,,0,102,102,46,,,,,,,,,,,,,AMP,left,0.3503367672819877,0,,,,,,,,,,,,,,left,0,0.3503367672819877,,,,,,,,,,,1078,2019_Mar_15_1437,mf_amp_cond2,3.0.4,60.02317854089826,
help,&&&&&,left,care.virtue,touls,,,,,,,,,,,,,,,0,103,103,71,,,,,,,,,,,,,AMP,right,0.2836452974443091,0,,,,,,,,,,,,,,right,0,0.2836452974443091,,,,,,,,,,,1078,2019_Mar_15_1437,mf_amp_cond2,3.0.4,60.02317854089826,
embrace,&&&&&&&&&,left,authority.virtue,metibolic,,,,,,,,,,,,,,,0,104,104,36,,,,,,,,,,,,,AMP,left,0.28365203278372064,1,,,,,,,,,,,,,,left,1,0.28365203278372064,,,,,,,,,,,1078,2019_Mar_15_1437,mf_amp_cond2,3.0.4,60.02317854089826,
faith,&&&&&&&&&&&,left,sanctity.virtue,presentkess,,,,,,,,,,,,,,,0,105,105,98,,,,,,,,,,,,,AMP,left,0.2335978292976506,1,,,,,,,,,,,,,,left,1,0.2335978292976506,,,,,,,,,,,1078,2019_Mar_15_1437,mf_amp_cond2,3.0.4,60.02317854089826,
trust,&&&&&&&&&&,left,authority.virtue,imebreaker,,,,,,,,,,,,,,,0,106,106,79,,,,,,,,,,,,,AMP,right,0.3003175234334776,0,,,,,,,,,,,,,,right,0,0.3003175234334776,,,,,,,,,,,1078,2019_Mar_15_1437,mf_amp_cond2,3.0.4,60.02317854089826,
officers,&&&&&&,right,authority.vice,squets,,,,,,,,,,,,,,,0,107,107,227,,,,,,,,,,,,,AMP,left,0.6504198365582852,0,,,,,,,,,,,,,,left,0,0.6504198365582852,,,,,,,,,,,1078,2019_Mar_15_1437,mf_amp_cond2,3.0.4,60.02317854089826,
freedom,&&&&,left,sanctity.virtue,yane,,,,,,,,,,,,,,,0,108,108,43,,,,,,,,,,,,,AMP,right,0.6004031585471239,0,,,,,,,,,,,,,,right,0,0.6004031585471239,,,,,,,,,,,1078,2019_Mar_15_1437,mf_amp_cond2,3.0.4,60.02317854089826,
serial,&&&&&&&&,right,sanctity.vice,divility,,,,,,,,,,,,,,,0,109,109,126,,,,,,,,,,,,,AMP,left,0.7004246475116815,0,,,,,,,,,,,,,,left,0,0.7004246475116815,,,,,,,,,,,1078,2019_Mar_15_1437,mf_amp_cond2,3.0.4,60.02317854089826,
promote,&&&&&&&&&&&,left,sanctity.virtue,precificity,,,,,,,,,,,,,,,0,110,110,191,,,,,,,,,,,,,AMP,right,0.250301807638607,0,,,,,,,,,,,,,,right,0,0.250301807638607,,,,,,,,,,,1078,2019_Mar_15_1437,mf_amp_cond2,3.0.4,60.02317854089826,
betrayal,&&&&&&,right,loyalty.vice,sgrawl,,,,,,,,,,,,,,,0,111,111,107,,,,,,,,,,,,,AMP,left,0.23362220483249985,0,,,,,,,,,,,,,,left,0,0.23362220483249985,,,,,,,,,,,1078,2019_Mar_15_1437,mf_amp_cond2,3.0.4,60.02317854089826,
sexual,&&&&&,right,sanctity.vice,uller,,,,,,,,,,,,,,,0,112,112,14,,,,,,,,,,,,,AMP,left,1.2005785982764792,0,,,,,,,,,,,,,,left,0,1.2005785982764792,,,,,,,,,,,1078,2019_Mar_15_1437,mf_amp_cond2,3.0.4,60.02317854089826,
embrace,&&&&&&&&,left,authority.virtue,drumbled,,,,,,,,,,,,,,,0,113,113,108,,,,,,,,,,,,,AMP,left,0.45036691597488243,1,,,,,,,,,,,,,,left,1,0.45036691597488243,,,,,,,,,,,1078,2019_Mar_15_1437,mf_amp_cond2,3.0.4,60.02317854089826,
restore,&&&&&&&&,left,care.virtue,counpy's,,,,,,,,,,,,,,,0,114,114,146,,,,,,,,,,,,,AMP,left,0.483715537484386,1,,,,,,,,,,,,,,left,1,0.483715537484386,,,,,,,,,,,1078,2019_Mar_15_1437,mf_amp_cond2,3.0.4,60.02317854089826,
protect,&&&&&&&&&&&,left,fairness.virtue,fornicalion,,,,,,,,,,,,,,,0,115,115,169,,,,,,,,,,,,,AMP,left,0.6004137426789384,1,,,,,,,,,,,,,,left,1,0.6004137426789384,,,,,,,,,,,1078,2019_Mar_15_1437,mf_amp_cond2,3.0.4,60.02317854089826,
growth,&&&&&&,left,care.virtue,Cunday,,,,,,,,,,,,,,,0,116,116,6,,,,,,,,,,,,,AMP,left,0.5503874427522533,1,,,,,,,,,,,,,,left,1,0.5503874427522533,,,,,,,,,,,1078,2019_Mar_15_1437,mf_amp_cond2,3.0.4,60.02317854089826,
focomotive,&&&&&&&&&&,None,nonword,lorthwhile,,,,,,,,,,,,,,,0,117,117,293,,,,,,,,,,,,,AMP,left,0.13361771460040472,0,,,,,,,,,,,,,,left,0,0.13361771460040472,,,,,,,,,,,1078,2019_Mar_15_1437,mf_amp_cond2,3.0.4,60.02317854089826,
army,&&&&&&&&&&,right,loyalty.vice,neutralust,,,,,,,,,,,,,,,0,118,118,143,,,,,,,,,,,,,AMP,left,0.9672088085499126,0,,,,,,,,,,,,,,left,0,0.9672088085499126,,,,,,,,,,,1078,2019_Mar_15_1437,mf_amp_cond2,3.0.4,60.02317854089826,
dignity,&&&&&&&&&,left,sanctity.virtue,baladroit,,,,,,,,,,,,,,,0,119,119,253,,,,,,,,,,,,,AMP,left,0.3503540867532138,1,,,,,,,,,,,,,,left,1,0.3503540867532138,,,,,,,,,,,1078,2019_Mar_15_1437,mf_amp_cond2,3.0.4,60.02317854089826,
friends,&&&&&&&&&,left,loyalty.virtue,gondensed,,,,,,,,,,,,,,,0,120,120,9,,,,,,,,,,,,,AMP,right,0.2503130332042929,0,,,,,,,,,,,,,,right,0,0.2503130332042929,,,,,,,,,,,1078,2019_Mar_15_1437,mf_amp_cond2,3.0.4,60.02317854089826,
ability,&&&&&&&&&&,left,authority.virtue,totalestic,,,,,,,,,,,,,,,0,121,121,18,,,,,,,,,,,,,AMP,right,0.7004563998634694,0,,,,,,,,,,,,,,right,0,0.7004563998634694,,,,,,,,,,,1078,2019_Mar_15_1437,mf_amp_cond2,3.0.4,60.02317854089826,
died,&&&&&&&&&,right,care.vice,gaultless,,,,,,,,,,,,,,,0,122,122,83,,,,,,,,,,,,,AMP,left,0.2503451062802924,0,,,,,,,,,,,,,,left,0,0.2503451062802924,,,,,,,,,,,1078,2019_Mar_15_1437,mf_amp_cond2,3.0.4,60.02317854089826,
sharing,&&&&&&&&&&,left,loyalty.virtue,frojecting,,,,,,,,,,,,,,,0,123,123,119,,,,,,,,,,,,,AMP,right,0.4836995009391103,0,,,,,,,,,,,,,,right,0,0.4836995009391103,,,,,,,,,,,1078,2019_Mar_15_1437,mf_amp_cond2,3.0.4,60.02317854089826,
violations,&&&&&&&&&&,right,sanctity.vice,totalestic,,,,,,,,,,,,,,,0,124,124,213,,,,,,,,,,,,,AMP,left,0.4003329185215989,0,,,,,,,,,,,,,,left,0,0.4003329185215989,,,,,,,,,,,1078,2019_Mar_15_1437,mf_amp_cond2,3.0.4,60.02317854089826,
conspiracy,&&&&&,right,sanctity.vice,saned,,,,,,,,,,,,,,,0,125,125,201,,,,,,,,,,,,,AMP,left,0.7171058539679507,0,,,,,,,,,,,,,,left,0,0.7171058539679507,,,,,,,,,,,1078,2019_Mar_15_1437,mf_amp_cond2,3.0.4,60.02317854089826,
killed,&&&&&&&,right,care.vice,vurtain,,,,,,,,,,,,,,,0,126,126,91,,,,,,,,,,,,,AMP,left,1.0005320923228282,0,,,,,,,,,,,,,,left,0,1.0005320923228282,,,,,,,,,,,1078,2019_Mar_15_1437,mf_amp_cond2,3.0.4,60.02317854089826,
crime,&&&&&&&&&,right,fairness.vice,seachwear,,,,,,,,,,,,,,,0,127,127,47,,,,,,,,,,,,,AMP,left,2.200813373186975,0,,,,,,,,,,,,,,left,0,2.200813373186975,,,,,,,,,,,1078,2019_Mar_15_1437,mf_amp_cond2,3.0.4,60.02317854089826,
scandal,&&&&,right,sanctity.vice,coom,,,,,,,,,,,,,,,0,128,128,35,,,,,,,,,,,,,AMP,left,0.7337642885540845,0,,,,,,,,,,,,,,left,0,0.7337642885540845,,,,,,,,,,,1078,2019_Mar_15_1437,mf_amp_cond2,3.0.4,60.02317854089826,
fegard,&&&&,None,nonword,ning,,,,,,,,,,,,,,,0,129,129,15,,,,,,,,,,,,,AMP,right,1.1505535812757444,0,,,,,,,,,,,,,,right,0,1.1505535812757444,,,,,,,,,,,1078,2019_Mar_15_1437,mf_amp_cond2,3.0.4,60.02317854089826,
arrests,&&&&&,right,authority.vice,uller,,,,,,,,,,,,,,,0,130,130,284,,,,,,,,,,,,,AMP,left,0.15027101748273708,0,,,,,,,,,,,,,,left,0,0.15027101748273708,,,,,,,,,,,1078,2019_Mar_15_1437,mf_amp_cond2,3.0.4,60.02317854089826,
useful,&&&&&,left,authority.virtue,tabin,,,,,,,,,,,,,,,0,131,131,307,,,,,,,,,,,,,AMP,left,0.41701797375571914,1,,,,,,,,,,,,,,left,1,0.41701797375571914,,,,,,,,,,,1078,2019_Mar_15_1437,mf_amp_cond2,3.0.4,60.02317854089826,
pleasant,&&&&&&&,None,control,halaise,,,,,,,,,,,,,,,0,132,132,270,,,,,,,,,,,,,AMP,right,0.26698654213396367,0,,,,,,,,,,,,,,right,0,0.26698654213396367,,,,,,,,,,,1078,2019_Mar_15_1437,mf_amp_cond2,3.0.4,60.02317854089826,
victim,&&&&&&&&,right,care.vice,sidearbs,,,,,,,,,,,,,,,0,133,133,228,,,,,,,,,,,,,AMP,left,0.1834887808363419,0,,,,,,,,,,,,,,left,0,0.1834887808363419,,,,,,,,,,,1078,2019_Mar_15_1437,mf_amp_cond2,3.0.4,60.02317854089826,
support,&&&&&&&&&&&,left,loyalty.virtue,precificity,,,,,,,,,,,,,,,0,134,134,319,,,,,,,,,,,,,AMP,right,0.18362348775553983,0,,,,,,,,,,,,,,right,0,0.18362348775553983,,,,,,,,,,,1078,2019_Mar_15_1437,mf_amp_cond2,3.0.4,60.02317854089826,
peace,&&&&&&&,left,care.virtue,allears,,,,,,,,,,,,,,,0,135,135,234,,,,,,,,,,,,,AMP,right,0.25027807356673293,0,,,,,,,,,,,,,,right,0,0.25027807356673293,,,,,,,,,,,1078,2019_Mar_15_1437,mf_amp_cond2,3.0.4,60.02317854089826,
ban,&&&&&,right,loyalty.vice,saned,,,,,,,,,,,,,,,0,136,136,44,,,,,,,,,,,,,AMP,left,0.5170619138662005,0,,,,,,,,,,,,,,left,0,0.5170619138662005,,,,,,,,,,,1078,2019_Mar_15_1437,mf_amp_cond2,3.0.4,60.02317854089826,
ban,&&&&&&&&,right,loyalty.vice,nuckheap,,,,,,,,,,,,,,,0,137,137,131,,,,,,,,,,,,,AMP,right,0.6003944988187868,1,,,,,,,,,,,,,,right,1,0.6003944988187868,,,,,,,,,,,1078,2019_Mar_15_1437,mf_amp_cond2,3.0.4,60.02317854089826,
opportunity,&&&&&&&&,left,fairness.virtue,drumbled,,,,,,,,,,,,,,,0,138,138,76,,,,,,,,,,,,,AMP,left,0.33368346441420726,1,,,,,,,,,,,,,,left,1,0.33368346441420726,,,,,,,,,,,1078,2019_Mar_15_1437,mf_amp_cond2,3.0.4,60.02317854089826,
rejected,&&&&&&&&&&,right,authority.vice,totalestic,,,,,,,,,,,,,,,0,139,139,251,,,,,,,,,,,,,AMP,left,0.4003649915975984,0,,,,,,,,,,,,,,left,0,0.4003649915975984,,,,,,,,,,,1078,2019_Mar_15_1437,mf_amp_cond2,3.0.4,60.02317854089826,
rejected,&&&&&&,right,authority.vice,strofe,,,,,,,,,,,,,,,0,140,140,178,,,,,,,,,,,,,AMP,left,0.5003791037452174,0,,,,,,,,,,,,,,left,0,0.5003791037452174,,,,,,,,,,,1078,2019_Mar_15_1437,mf_amp_cond2,3.0.4,60.02317854089826,
betrayal,&&&&&&&&,right,loyalty.vice,lachelor,,,,,,,,,,,,,,,0,141,141,55,,,,,,,,,,,,,AMP,left,0.38368987901776563,0,,,,,,,,,,,,,,left,0,0.38368987901776563,,,,,,,,,,,1078,2019_Mar_15_1437,mf_amp_cond2,3.0.4,60.02317854089826,
arrests,&&&&&&&&&,right,authority.vice,metibolic,,,,,,,,,,,,,,,0,142,142,106,,,,,,,,,,,,,AMP,left,0.13362188410246745,0,,,,,,,,,,,,,,left,0,0.13362188410246745,,,,,,,,,,,1078,2019_Mar_15_1437,mf_amp_cond2,3.0.4,60.02317854089826,
police,&&&&&&&&&&,right,authority.vice,elduringly,,,,,,,,,,,,,,,0,143,143,261,,,,,,,,,,,,,AMP,left,0.3836901997565292,0,,,,,,,,,,,,,,left,0,0.3836901997565292,,,,,,,,,,,1078,2019_Mar_15_1437,mf_amp_cond2,3.0.4,60.02317854089826,
party,&&&&&&,left,loyalty.virtue,Cunday,,,,,,,,,,,,,,,0,144,144,223,,,,,,,,,,,,,AMP,right,0.20030950517684687,0,,,,,,,,,,,,,,right,0,0.20030950517684687,,,,,,,,,,,1078,2019_Mar_15_1437,mf_amp_cond2,3.0.4,60.02317854089826,
illegal,&&&&&&&&,right,fairness.vice,drumbled,,,,,,,,,,,,,,,0,145,145,325,,,,,,,,,,,,,AMP,left,0.33370367043244187,0,,,,,,,,,,,,,,left,0,0.33370367043244187,,,,,,,,,,,1078,2019_Mar_15_1437,mf_amp_cond2,3.0.4,60.02317854089826,
attacks,&&&&&&&,right,care.vice,allears,,,,,,,,,,,,,,,0,146,146,313,,,,,,,,,,,,,AMP,left,0.45036467086174525,0,,,,,,,,,,,,,,left,0,0.45036467086174525,,,,,,,,,,,1078,2019_Mar_15_1437,mf_amp_cond2,3.0.4,60.02317854089826,
opportunity,&&&&&&,left,fairness.virtue,antral,,,,,,,,,,,,,,,0,147,147,153,,,,,,,,,,,,,AMP,left,0.6337379886390409,1,,,,,,,,,,,,,,left,1,0.6337379886390409,,,,,,,,,,,1078,2019_Mar_15_1437,mf_amp_cond2,3.0.4,60.02317854089826,
fegard,&&&&&&&&&,None,nonword,grovelire,,,,,,,,,,,,,,,0,148,148,162,,,,,,,,,,,,,AMP,left,0.46702952006307896,0,,,,,,,,,,,,,,left,0,0.46702952006307896,,,,,,,,,,,1078,2019_Mar_15_1437,mf_amp_cond2,3.0.4,60.02317854089826,
officers,&&&&,right,authority.vice,alar,,,,,,,,,,,,,,,0,149,149,276,,,,,,,,,,,,,AMP,left,0.08358949028479401,0,,,,,,,,,,,,,,left,0,0.08358949028479401,,,,,,,,,,,1078,2019_Mar_15_1437,mf_amp_cond2,3.0.4,60.02317854089826,
photocalkodes,&&&&&&&&&&,None,nonword,imebreaker,,,,,,,,,,,,,,,0,150,150,120,,,,,,,,,,,,,AMP,left,0.15026748944364954,0,,,,,,,,,,,,,,left,0,0.15026748944364954,,,,,,,,,,,1078,2019_Mar_15_1437,mf_amp_cond2,3.0.4,60.02317854089826,
death,&&&&&&&&&,right,care.vice,godlaness,,,,,,,,,,,,,,,0,151,151,116,,,,,,,,,,,,,AMP,right,0.5503909707913408,1,,,,,,,,,,,,,,right,1,0.5503909707913408,,,,,,,,,,,1078,2019_Mar_15_1437,mf_amp_cond2,3.0.4,60.02317854089826,
ability,&&&&&&&&,left,authority.virtue,sliptery,,,,,,,,,,,,,,,0,152,152,144,,,,,,,,,,,,,AMP,right,0.30034478555899113,0,,,,,,,,,,,,,,right,0,0.30034478555899113,,,,,,,,,,,1078,2019_Mar_15_1437,mf_amp_cond2,3.0.4,60.02317854089826,
actively,&&&&&&,left,authority.virtue,chared,,,,,,,,,,,,,,,0,153,153,254,,,,,,,,,,,,,AMP,right,0.43369340705976356,0,,,,,,,,,,,,,,right,0,0.43369340705976356,,,,,,,,,,,1078,2019_Mar_15_1437,mf_amp_cond2,3.0.4,60.02317854089826,
help,&&&&&&&&,left,care.virtue,bluently,,,,,,,,,,,,,,,0,154,154,294,,,,,,,,,,,,,AMP,left,0.5504073280462762,1,,,,,,,,,,,,,,left,1,0.5504073280462762,,,,,,,,,,,1078,2019_Mar_15_1437,mf_amp_cond2,3.0.4,60.02317854089826,
actively,&&&&&&&&&,left,authority.virtue,tenuflect,,,,,,,,,,,,,,,0,155,155,243,,,,,,,,,,,,,AMP,left,1.1672379950468894,1,,,,,,,,,,,,,,left,1,1.1672379950468894,,,,,,,,,,,1078,2019_Mar_15_1437,mf_amp_cond2,3.0.4,60.02317854089826,
photocalkodes,&&&&&&&&,None,nonword,emassion,,,,,,,,,,,,,,,0,156,156,197,,,,,,,,,,,,,AMP,left,0.31699520186521113,0,,,,,,,,,,,,,,left,0,0.31699520186521113,,,,,,,,,,,1078,2019_Mar_15_1437,mf_amp_cond2,3.0.4,60.02317854089826,
faith,&&&&&&&&&&&,left,sanctity.virtue,sowntrodden,,,,,,,,,,,,,,,0,157,157,48,,,,,,,,,,,,,AMP,left,0.26695446905796416,1,,,,,,,,,,,,,,left,1,0.26695446905796416,,,,,,,,,,,1078,2019_Mar_15_1437,mf_amp_cond2,3.0.4,60.02317854089826,
care,&&&&&&&&&&,left,care.virtue,neutralust,,,,,,,,,,,,,,,0,158,158,32,,,,,,,,,,,,,AMP,right,0.5670991186343599,0,,,,,,,,,,,,,,right,0,0.5670991186343599,,,,,,,,,,,1078,2019_Mar_15_1437,mf_amp_cond2,3.0.4,60.02317854089826,
health,&&&&&&&&,left,care.virtue,hescribe,,,,,,,,,,,,,,,0,159,159,103,,,,,,,,,,,,,AMP,right,0.21685151448764373,0,,,,,,,,,,,,,,right,0,0.21685151448764373,,,,,,,,,,,1078,2019_Mar_15_1437,mf_amp_cond2,3.0.4,60.02317854089826,
pafer,&&&&&&&&&,None,nonword,metibolic,,,,,,,,,,,,,,,0,160,160,289,,,,,,,,,,,,,AMP,left,0.6671071369055426,0,,,,,,,,,,,,,,left,0,0.6671071369055426,,,,,,,,,,,1078,2019_Mar_15_1437,mf_amp_cond2,3.0.4,60.02317854089826,
hasks,&&&&&&&&,None,nonword,gournful,,,,,,,,,,,,,,,0,161,161,118,,,,,,,,,,,,,AMP,left,0.400350237992825,0,,,,,,,,,,,,,,left,0,0.400350237992825,,,,,,,,,,,1078,2019_Mar_15_1437,mf_amp_cond2,3.0.4,60.02317854089826,
failure,&&&&&&&&&,right,loyalty.vice,taxpayung,,,,,,,,,,,,,,,0,162,162,109,,,,,,,,,,,,,AMP,left,0.36701861521578394,0,,,,,,,,,,,,,,left,0,0.36701861521578394,,,,,,,,,,,1078,2019_Mar_15_1437,mf_amp_cond2,3.0.4,60.02317854089826,
freedom,&&&&&,left,sanctity.virtue,ablow,,,,,,,,,,,,,,,0,163,163,127,,,,,,,,,,,,,AMP,right,0.3336677486076951,0,,,,,,,,,,,,,,right,0,0.3336677486076951,,,,,,,,,,,1078,2019_Mar_15_1437,mf_amp_cond2,3.0.4,60.02317854089826,
respect,&&&&&,left,sanctity.virtue,tabin,,,,,,,,,,,,,,,0,164,164,147,,,,,,,,,,,,,AMP,right,0.500381028134143,0,,,,,,,,,,,,,,right,0,0.500381028134143,,,,,,,,,,,1078,2019_Mar_15_1437,mf_amp_cond2,3.0.4,60.02317854089826,
useful,&&&&&&&&&&,left,authority.virtue,supervuned,,,,,,,,,,,,,,,0,165,165,11,,,,,,,,,,,,,AMP,right,0.2836998216662323,0,,,,,,,,,,,,,,right,0,0.2836998216662323,,,,,,,,,,,1078,2019_Mar_15_1437,mf_amp_cond2,3.0.4,60.02317854089826,
war,&&&&&&&&,right,sanctity.vice,bluently,,,,,,,,,,,,,,,0,166,166,156,,,,,,,,,,,,,AMP,left,0.35033644655777607,0,,,,,,,,,,,,,,left,0,0.35033644655777607,,,,,,,,,,,1078,2019_Mar_15_1437,mf_amp_cond2,3.0.4,60.02317854089826,
sexual,&&&&&&&&&&,right,sanctity.vice,supervuned,,,,,,,,,,,,,,,0,167,167,283,,,,,,,,,,,,,AMP,left,0.767122531979112,0,,,,,,,,,,,,,,left,0,0.767122531979112,,,,,,,,,,,1078,2019_Mar_15_1437,mf_amp_cond2,3.0.4,60.02317854089826,
crime,&&&&&&&&&&,right,fairness.vice,galamitous,,,,,,,,,,,,,,,0,168,168,308,,,,,,,,,,,,,AMP,left,0.4170166908297688,0,,,,,,,,,,,,,,left,0,0.4170166908297688,,,,,,,,,,,1078,2019_Mar_15_1437,mf_amp_cond2,3.0.4,60.02317854089826,
prison,&&&&&&&&&,right,fairness.vice,taxpayung,,,,,,,,,,,,,,,0,169,169,216,,,,,,,,,,,,,AMP,left,0.4003617842827225,0,,,,,,,,,,,,,,left,0,0.4003617842827225,,,,,,,,,,,1078,2019_Mar_15_1437,mf_amp_cond2,3.0.4,60.02317854089826,
violations,&&&&&&&&&&&,right,sanctity.vice,ilportation,,,,,,,,,,,,,,,0,170,170,154,,,,,,,,,,,,,AMP,left,0.9171597367385402,0,,,,,,,,,,,,,,left,0,0.9171597367385402,,,,,,,,,,,1078,2019_Mar_15_1437,mf_amp_cond2,3.0.4,60.02317854089826,
freedom,&&&&&&&&,left,sanctity.virtue,gournful,,,,,,,,,,,,,,,0,171,171,196,,,,,,,,,,,,,AMP,right,0.16694709224975668,0,,,,,,,,,,,,,,right,0,0.16694709224975668,,,,,,,,,,,1078,2019_Mar_15_1437,mf_amp_cond2,3.0.4,60.02317854089826,
embrace,&&&&&&,left,authority.virtue,erdest,,,,,,,,,,,,,,,0,172,172,233,,,,,,,,,,,,,AMP,left,0.5003752549819183,1,,,,,,,,,,,,,,left,1,0.5003752549819183,,,,,,,,,,,1078,2019_Mar_15_1437,mf_amp_cond2,3.0.4,60.02317854089826,
celebrated,&&&&,left,authority.virtue,ning,,,,,,,,,,,,,,,0,173,173,224,,,,,,,,,,,,,AMP,left,0.41704716024105437,1,,,,,,,,,,,,,,left,1,0.41704716024105437,,,,,,,,,,,1078,2019_Mar_15_1437,mf_amp_cond2,3.0.4,60.02317854089826,
win,&&&&&&&,left,fairness.virtue,smapper,,,,,,,,,,,,,,,0,174,174,229,,,,,,,,,,,,,AMP,right,0.46703817979141604,0,,,,,,,,,,,,,,right,0,0.46703817979141604,,,,,,,,,,,1078,2019_Mar_15_1437,mf_amp_cond2,3.0.4,60.02317854089826,
sharing,&&&&&&&,left,loyalty.virtue,festate,,,,,,,,,,,,,,,0,175,175,260,,,,,,,,,,,,,AMP,right,1.2172450511279749,0,,,,,,,,,,,,,,right,0,1.2172450511279749,,,,,,,,,,,1078,2019_Mar_15_1437,mf_amp_cond2,3.0.4,60.02317854089826,
fangsters,&&&&&,None,nonword,mecan,,,,,,,,,,,,,,,0,176,176,220,,,,,,,,,,,,,AMP,left,0.7837832116783829,0,,,,,,,,,,,,,,left,0,0.7837832116783829,,,,,,,,,,,1078,2019_Mar_15_1437,mf_amp_cond2,3.0.4,60.02317854089826,
protect,&&&&&&&&&,left,fairness.virtue,grovelire,,,,,,,,,,,,,,,0,177,177,24,,,,,,,,,,,,,AMP,right,0.2669778824056266,0,,,,,,,,,,,,,,right,0,0.2669778824056266,,,,,,,,,,,1078,2019_Mar_15_1437,mf_amp_cond2,3.0.4,60.02317854089826,
unpleasant,&&&&&&,None,control,strofe,,,,,,,,,,,,,,,0,178,178,274,,,,,,,,,,,,,AMP,left,0.6170753845508443,0,,,,,,,,,,,,,,left,0,0.6170753845508443,,,,,,,,,,,1078,2019_Mar_15_1437,mf_amp_cond2,3.0.4,60.02317854089826,
fair,&&&&&&,left,fairness.virtue,Cunday,,,,,,,,,,,,,,,0,179,179,303,,,,,,,,,,,,,AMP,left,0.5337267630529823,1,,,,,,,,,,,,,,left,1,0.5337267630529823,,,,,,,,,,,1078,2019_Mar_15_1437,mf_amp_cond2,3.0.4,60.02317854089826,
party,&&&&&&&,left,loyalty.virtue,halaise,,,,,,,,,,,,,,,0,180,180,4,,,,,,,,,,,,,AMP,left,0.7336462596431375,1,,,,,,,,,,,,,,left,1,0.7336462596431375,,,,,,,,,,,1078,2019_Mar_15_1437,mf_amp_cond2,3.0.4,60.02317854089826,
illegal,&&&&&&&&&&&,right,fairness.vice,egpeditious,,,,,,,,,,,,,,,0,181,181,7,,,,,,,,,,,,,AMP,left,0.5170952698535984,0,,,,,,,,,,,,,,left,0,0.5170952698535984,,,,,,,,,,,1078,2019_Mar_15_1437,mf_amp_cond2,3.0.4,60.02317854089826,
attacks,&&&&&&&&,right,care.vice,emassion,,,,,,,,,,,,,,,0,182,182,81,,,,,,,,,,,,,AMP,left,0.7504589657037286,0,,,,,,,,,,,,,,left,0,0.7504589657037286,,,,,,,,,,,1078,2019_Mar_15_1437,mf_amp_cond2,3.0.4,60.02317854089826,
voter,&&&&&&&&&&,right,fairness.vice,lorthwhile,,,,,,,,,,,,,,,0,183,183,204,,,,,,,,,,,,,AMP,left,0.300313995408942,0,,,,,,,,,,,,,,left,0,0.300313995408942,,,,,,,,,,,1078,2019_Mar_15_1437,mf_amp_cond2,3.0.4,60.02317854089826,
useful,&&&&&&&&,left,authority.virtue,tracious,,,,,,,,,,,,,,,0,184,184,164,,,,,,,,,,,,,AMP,right,0.483713933834224,0,,,,,,,,,,,,,,right,0,0.483713933834224,,,,,,,,,,,1078,2019_Mar_15_1437,mf_amp_cond2,3.0.4,60.02317854089826,
war,&&&&&&&&&&&&,right,sanctity.vice,gusinesslike,,,,,,,,,,,,,,,0,185,185,217,,,,,,,,,,,,,AMP,right,0.3169791653199354,1,,,,,,,,,,,,,,right,1,0.3169791653199354,,,,,,,,,,,1078,2019_Mar_15_1437,mf_amp_cond2,3.0.4,60.02317854089826,
good,&&&&,left,care.virtue,wump,,,,,,,,,,,,,,,0,186,186,267,,,,,,,,,,,,,AMP,right,0.3503765378991375,0,,,,,,,,,,,,,,right,0,0.3503765378991375,,,,,,,,,,,1078,2019_Mar_15_1437,mf_amp_cond2,3.0.4,60.02317854089826,
pleasant,&&&&&&,None,control,letish,,,,,,,,,,,,,,,0,187,187,135,,,,,,,,,,,,,AMP,right,0.45036851962504443,0,,,,,,,,,,,,,,right,0,0.45036851962504443,,,,,,,,,,,1078,2019_Mar_15_1437,mf_amp_cond2,3.0.4,60.02317854089826,
officers,&&&&&&&,right,authority.vice,nackers,,,,,,,,,,,,,,,0,188,188,30,,,,,,,,,,,,,AMP,right,0.6337511385936523,1,,,,,,,,,,,,,,right,1,0.6337511385936523,,,,,,,,,,,1078,2019_Mar_15_1437,mf_amp_cond2,3.0.4,60.02317854089826,
violations,&&&&&&&&,right,sanctity.vice,sliptery,,,,,,,,,,,,,,,0,189,189,306,,,,,,,,,,,,,AMP,left,0.5670667248341488,0,,,,,,,,,,,,,,left,0,0.5670667248341488,,,,,,,,,,,1078,2019_Mar_15_1437,mf_amp_cond2,3.0.4,60.02317854089826,
loyalty,&&&&&&&&&,left,loyalty.virtue,gillipede,,,,,,,,,,,,,,,0,190,190,208,,,,,,,,,,,,,AMP,left,0.5170526126603363,1,,,,,,,,,,,,,,left,1,0.5170526126603363,,,,,,,,,,,1078,2019_Mar_15_1437,mf_amp_cond2,3.0.4,60.02317854089826,
terrorists,&&&&&&&&&&&,right,fairness.vice,shoirmaster,,,,,,,,,,,,,,,0,191,191,179,,,,,,,,,,,,,AMP,left,0.3169749958324246,0,,,,,,,,,,,,,,left,0,0.3169749958324246,,,,,,,,,,,1078,2019_Mar_15_1437,mf_amp_cond2,3.0.4,60.02317854089826,
health,&&&&&&&&&,left,care.virtue,gaultless,,,,,,,,,,,,,,,0,192,192,187,,,,,,,,,,,,,AMP,right,0.3003252209891798,0,,,,,,,,,,,,,,right,0,0.3003252209891798,,,,,,,,,,,1078,2019_Mar_15_1437,mf_amp_cond2,3.0.4,60.02317854089826,
sharing,&&&&&&&&&&,left,loyalty.virtue,supervuned,,,,,,,,,,,,,,,0,193,193,237,,,,,,,,,,,,,AMP,right,0.4170497260929551,0,,,,,,,,,,,,,,right,0,0.4170497260929551,,,,,,,,,,,1078,2019_Mar_15_1437,mf_amp_cond2,3.0.4,60.02317854089826,
unpleasant,&&&&&&&&,None,control,lachelor,,,,,,,,,,,,,,,0,194,194,242,,,,,,,,,,,,,AMP,left,0.6170667248225072,0,,,,,,,,,,,,,,left,0,0.6170667248225072,,,,,,,,,,,1078,2019_Mar_15_1437,mf_amp_cond2,3.0.4,60.02317854089826,
riot,&&&&&&&&,right,authority.vice,counpy's,,,,,,,,,,,,,,,0,195,195,62,,,,,,,,,,,,,AMP,left,0.3171157966280589,0,,,,,,,,,,,,,,left,0,0.3171157966280589,,,,,,,,,,,1078,2019_Mar_15_1437,mf_amp_cond2,3.0.4,60.02317854089826,
harassment,&&&&&&&,right,sanctity.vice,baklara,,,,,,,,,,,,,,,0,196,196,21,,,,,,,,,,,,,AMP,left,0.567062555332086,0,,,,,,,,,,,,,,left,0,0.567062555332086,,,,,,,,,,,1078,2019_Mar_15_1437,mf_amp_cond2,3.0.4,60.02317854089826,
protect,&&&&&&&&&&&&&,left,fairness.virtue,synchronazers,,,,,,,,,,,,,,,0,197,197,99,,,,,,,,,,,,,AMP,left,0.600407007324975,1,,,,,,,,,,,,,,left,1,0.600407007324975,,,,,,,,,,,1078,2019_Mar_15_1437,mf_amp_cond2,3.0.4,60.02317854089826,
death,&&&&&&&&&,right,care.vice,godlaness,,,,,,,,,,,,,,,0,198,198,33,,,,,,,,,,,,,AMP,left,0.5003781415580306,0,,,,,,,,,,,,,,left,0,0.5003781415580306,,,,,,,,,,,1078,2019_Mar_15_1437,mf_amp_cond2,3.0.4,60.02317854089826,
care,&&&&&&&,left,care.virtue,allears,,,,,,,,,,,,,,,0,199,199,140,,,,,,,,,,,,,AMP,right,0.3169900701759616,0,,,,,,,,,,,,,,right,0,0.3169900701759616,,,,,,,,,,,1078,2019_Mar_15_1437,mf_amp_cond2,3.0.4,60.02317854089826,
hand,&&&&&&,left,sanctity.virtue,strofe,,,,,,,,,,,,,,,0,200,200,56,,,,,,,,,,,,,AMP,right,0.6004057243990246,0,,,,,,,,,,,,,,right,0,0.6004057243990246,,,,,,,,,,,1078,2019_Mar_15_1437,mf_amp_cond2,3.0.4,60.02317854089826,
celebrated,&&&&&&&&,left,authority.virtue,suggists,,,,,,,,,,,,,,,0,201,201,292,,,,,,,,,,,,,AMP,right,0.6670943076751428,0,,,,,,,,,,,,,,right,0,0.6670943076751428,,,,,,,,,,,1078,2019_Mar_15_1437,mf_amp_cond2,3.0.4,60.02317854089826,
dignity,&&&&&&&&&&,left,sanctity.virtue,neutralust,,,,,,,,,,,,,,,0,202,202,209,,,,,,,,,,,,,AMP,left,0.35033805020793807,1,,,,,,,,,,,,,,left,1,0.35033805020793807,,,,,,,,,,,1078,2019_Mar_15_1437,mf_amp_cond2,3.0.4,60.02317854089826,
energy,&&&&,left,sanctity.virtue,spag,,,,,,,,,,,,,,,0,203,203,235,,,,,,,,,,,,,AMP,right,0.2169624873349676,0,,,,,,,,,,,,,,right,0,0.2169624873349676,,,,,,,,,,,1078,2019_Mar_15_1437,mf_amp_cond2,3.0.4,60.02317854089826,
promote,&&&&&&&&&&,left,sanctity.virtue,galamitous,,,,,,,,,,,,,,,0,204,204,132,,,,,,,,,,,,,AMP,right,0.25030950517975725,0,,,,,,,,,,,,,,right,0,0.25030950517975725,,,,,,,,,,,1078,2019_Mar_15_1437,mf_amp_cond2,3.0.4,60.02317854089826,
hasks,&&&&&&&,None,nonword,troubla,,,,,,,,,,,,,,,0,205,205,184,,,,,,,,,,,,,AMP,left,0.33366005106654484,0,,,,,,,,,,,,,,left,0,0.33366005106654484,,,,,,,,,,,1078,2019_Mar_15_1437,mf_amp_cond2,3.0.4,60.02317854089826,
died,&&&&&&,right,care.vice,letish,,,,,,,,,,,,,,,0,206,206,203,,,,,,,,,,,,,AMP,left,0.3169852592109237,0,,,,,,,,,,,,,,left,0,0.3169852592109237,,,,,,,,,,,1078,2019_Mar_15_1437,mf_amp_cond2,3.0.4,60.02317854089826,
illegal,&&&&&&&&&&&,right,fairness.vice,hefurbished,,,,,,,,,,,,,,,0,207,207,121,,,,,,,,,,,,,AMP,right,0.7171042503323406,1,,,,,,,,,,,,,,right,1,0.7171042503323406,,,,,,,,,,,1078,2019_Mar_15_1437,mf_amp_cond2,3.0.4,60.02317854089826,
trust,&&&&&&&,left,authority.virtue,halaise,,,,,,,,,,,,,,,0,208,208,82,,,,,,,,,,,,,AMP,right,0.40035087944124825,0,,,,,,,,,,,,,,right,0,0.40035087944124825,,,,,,,,,,,1078,2019_Mar_15_1437,mf_amp_cond2,3.0.4,60.02317854089826,
agreement,&&&&&,left,fairness.virtue,tabin,,,,,,,,,,,,,,,0,209,209,199,,,,,,,,,,,,,AMP,left,0.46703176517621614,1,,,,,,,,,,,,,,left,1,0.46703176517621614,,,,,,,,,,,1078,2019_Mar_15_1437,mf_amp_cond2,3.0.4,60.02317854089826,
conspiracy,&&&&&&&&&,right,sanctity.vice,taxpayung,,,,,,,,,,,,,,,0,210,210,321,,,,,,,,,,,,,AMP,left,0.483702066791011,0,,,,,,,,,,,,,,left,0,0.483702066791011,,,,,,,,,,,1078,2019_Mar_15_1437,mf_amp_cond2,3.0.4,60.02317854089826,
groups,&&&&&&&&&&&,right,loyalty.vice,sowntrodden,,,,,,,,,,,,,,,0,211,211,315,,,,,,,,,,,,,AMP,left,0.4003425404516747,0,,,,,,,,,,,,,,left,0,0.4003425404516747,,,,,,,,,,,1078,2019_Mar_15_1437,mf_amp_cond2,3.0.4,60.02317854089826,
faith,&&&&&&,left,sanctity.virtue,openet,,,,,,,,,,,,,,,0,212,212,255,,,,,,,,,,,,,AMP,left,0.4170343310252065,1,,,,,,,,,,,,,,left,1,0.4170343310252065,,,,,,,,,,,1078,2019_Mar_15_1437,mf_amp_cond2,3.0.4,60.02317854089826,
harassment,&&&&&&&&&&&,right,sanctity.vice,hefurbished,,,,,,,,,,,,,,,0,213,213,172,,,,,,,,,,,,,AMP,left,0.5837354227842297,0,,,,,,,,,,,,,,left,0,0.5837354227842297,,,,,,,,,,,1078,2019_Mar_15_1437,mf_amp_cond2,3.0.4,60.02317854089826,
free,&&&&&&&&,left,fairness.virtue,tracious,,,,,,,,,,,,,,,0,214,214,137,,,,,,,,,,,,,AMP,left,0.9838550553540699,1,,,,,,,,,,,,,,left,1,0.9838550553540699,,,,,,,,,,,1078,2019_Mar_15_1437,mf_amp_cond2,3.0.4,60.02317854089826,
black,&&&&&&&&&&&,right,loyalty.vice,egpeditious,,,,,,,,,,,,,,,0,215,215,105,,,,,,,,,,,,,AMP,right,0.13362669505295344,1,,,,,,,,,,,,,,right,1,0.13362669505295344,,,,,,,,,,,1078,2019_Mar_15_1437,mf_amp_cond2,3.0.4,60.02317854089826,
death,&&&&&&&&&&,right,care.vice,chonograph,,,,,,,,,,,,,,,0,216,216,215,,,,,,,,,,,,,AMP,left,0.6170869308552938,0,,,,,,,,,,,,,,left,0,0.6170869308552938,,,,,,,,,,,1078,2019_Mar_15_1437,mf_amp_cond2,3.0.4,60.02317854089826,
failure,&&&&&&&&,right,loyalty.vice,sliptery,,,,,,,,,,,,,,,0,217,217,53,,,,,,,,,,,,,AMP,left,0.33366582420421764,0,,,,,,,,,,,,,,left,0,0.33366582420421764,,,,,,,,,,,1078,2019_Mar_15_1437,mf_amp_cond2,3.0.4,60.02317854089826,
fair,&&&&&&&,left,fairness.virtue,festate,,,,,,,,,,,,,,,0,218,218,141,,,,,,,,,,,,,AMP,left,1.1839063722727587,1,,,,,,,,,,,,,,left,1,1.1839063722727587,,,,,,,,,,,1078,2019_Mar_15_1437,mf_amp_cond2,3.0.4,60.02317854089826,
strong,&&&&&&&&&,left,loyalty.virtue,baladroit,,,,,,,,,,,,,,,0,219,219,92,,,,,,,,,,,,,AMP,left,2.050622217662749,1,,,,,,,,,,,,,,left,1,2.050622217662749,,,,,,,,,,,1078,2019_Mar_15_1437,mf_amp_cond2,3.0.4,60.02317854089826,
pafer,&&&&,None,nonword,yane,,,,,,,,,,,,,,,0,220,220,160,,,,,,,,,,,,,AMP,right,0.4670314444374526,0,,,,,,,,,,,,,,right,0,0.4670314444374526,,,,,,,,,,,1078,2019_Mar_15_1437,mf_amp_cond2,3.0.4,60.02317854089826,
threatened,&&&&&&&,right,fairness.vice,vurtain,,,,,,,,,,,,,,,0,221,221,262,,,,,,,,,,,,,AMP,left,0.30031944782240316,0,,,,,,,,,,,,,,left,0,0.30031944782240316,,,,,,,,,,,1078,2019_Mar_15_1437,mf_amp_cond2,3.0.4,60.02317854089826,
army,&&&&&&&&&&&,right,loyalty.vice,precificity,,,,,,,,,,,,,,,0,222,222,74,,,,,,,,,,,,,AMP,left,0.35034350263595115,0,,,,,,,,,,,,,,left,0,0.35034350263595115,,,,,,,,,,,1078,2019_Mar_15_1437,mf_amp_cond2,3.0.4,60.02317854089826,
riot,&&&&&&&&&&&,right,authority.vice,lempestuous,,,,,,,,,,,,,,,0,223,223,111,,,,,,,,,,,,,AMP,left,0.15028192232421134,0,,,,,,,,,,,,,,left,0,0.15028192232421134,,,,,,,,,,,1078,2019_Mar_15_1437,mf_amp_cond2,3.0.4,60.02317854089826,
dignity,&&&&,left,sanctity.virtue,coom,,,,,,,,,,,,,,,0,224,224,142,,,,,,,,,,,,,AMP,left,0.23363984501338564,1,,,,,,,,,,,,,,left,1,0.23363984501338564,,,,,,,,,,,1078,2019_Mar_15_1437,mf_amp_cond2,3.0.4,60.02317854089826,
agreement,&&&&&&&&,left,fairness.virtue,suggists,,,,,,,,,,,,,,,0,225,225,139,,,,,,,,,,,,,AMP,left,0.4170231054449687,1,,,,,,,,,,,,,,left,1,0.4170231054449687,,,,,,,,,,,1078,2019_Mar_15_1437,mf_amp_cond2,3.0.4,60.02317854089826,
riot,&&&&&&&&&,right,authority.vice,grovelire,,,,,,,,,,,,,,,0,226,226,265,,,,,,,,,,,,,AMP,left,0.13361129998520482,0,,,,,,,,,,,,,,left,0,0.13361129998520482,,,,,,,,,,,1078,2019_Mar_15_1437,mf_amp_cond2,3.0.4,60.02317854089826,
ugeasily,&&&&&&,None,nonword,squets,,,,,,,,,,,,,,,0,227,227,41,,,,,,,,,,,,,AMP,left,0.13364048648509197,0,,,,,,,,,,,,,,left,0,0.13364048648509197,,,,,,,,,,,1078,2019_Mar_15_1437,mf_amp_cond2,3.0.4,60.02317854089826,
police,&&&&,right,authority.vice,spag,,,,,,,,,,,,,,,0,228,228,123,,,,,,,,,,,,,AMP,left,0.2836485047446331,0,,,,,,,,,,,,,,left,0,0.2836485047446331,,,,,,,,,,,1078,2019_Mar_15_1437,mf_amp_cond2,3.0.4,60.02317854089826,
killed,&&&&&&&&,right,care.vice,divility,,,,,,,,,,,,,,,0,229,229,200,,,,,,,,,,,,,AMP,left,0.13346825407643337,0,,,,,,,,,,,,,,left,0,0.13346825407643337,,,,,,,,,,,1078,2019_Mar_15_1437,mf_amp_cond2,3.0.4,60.02317854089826,
victims,&&&&&&&&,right,care.vice,hescribe,,,,,,,,,,,,,,,0,230,230,52,,,,,,,,,,,,,AMP,left,0.5503967439435655,0,,,,,,,,,,,,,,left,0,0.5503967439435655,,,,,,,,,,,1078,2019_Mar_15_1437,mf_amp_cond2,3.0.4,60.02317854089826,
torture,&&&&&&&,right,care.vice,vurtain,,,,,,,,,,,,,,,0,231,231,192,,,,,,,,,,,,,AMP,left,0.35032522097753827,0,,,,,,,,,,,,,,left,0,0.35032522097753827,,,,,,,,,,,1078,2019_Mar_15_1437,mf_amp_cond2,3.0.4,60.02317854089826,
pleasant,&&&&&&&&&&&&,None,control,bruthfulness,,,,,,,,,,,,,,,0,232,232,221,,,,,,,,,,,,,AMP,left,0.40036595379933715,0,,,,,,,,,,,,,,left,0,0.40036595379933715,,,,,,,,,,,1078,2019_Mar_15_1437,mf_amp_cond2,3.0.4,60.02317854089826,
help,&&&&&&&&&&&,left,care.virtue,shoirmaster,,,,,,,,,,,,,,,0,233,233,117,,,,,,,,,,,,,AMP,left,0.3503438233601628,1,,,,,,,,,,,,,,left,1,0.3503438233601628,,,,,,,,,,,1078,2019_Mar_15_1437,mf_amp_cond2,3.0.4,60.02317854089826,
hasks,&&&&&&&&,None,nonword,suggists,,,,,,,,,,,,,,,0,234,234,3,,,,,,,,,,,,,AMP,left,0.3003694818326039,0,,,,,,,,,,,,,,left,0,0.3003694818326039,,,,,,,,,,,1078,2019_Mar_15_1437,mf_amp_cond2,3.0.4,60.02317854089826,
agreement,&&&&&&&&&&,left,fairness.virtue,lorthwhile,,,,,,,,,,,,,,,0,235,235,2,,,,,,,,,,,,,AMP,left,0.25031912710983306,1,,,,,,,,,,,,,,left,1,0.25031912710983306,,,,,,,,,,,1078,2019_Mar_15_1437,mf_amp_cond2,3.0.4,60.02317854089826,
dormandi,&&&&&&&&,None,nonword,slending,,,,,,,,,,,,,,,0,236,236,280,,,,,,,,,,,,,AMP,left,0.2669868628727272,0,,,,,,,,,,,,,,left,0,0.2669868628727272,,,,,,,,,,,1078,2019_Mar_15_1437,mf_amp_cond2,3.0.4,60.02317854089826,
fangsters,&&&&&&,None,nonword,strofe,,,,,,,,,,,,,,,0,237,237,145,,,,,,,,,,,,,AMP,left,0.10027069675561506,0,,,,,,,,,,,,,,left,0,0.10027069675561506,,,,,,,,,,,1078,2019_Mar_15_1437,mf_amp_cond2,3.0.4,60.02317854089826,
proached,&&&&&&&&&,None,nonword,gillipede,,,,,,,,,,,,,,,0,238,238,40,,,,,,,,,,,,,AMP,left,0.08364882548630703,0,,,,,,,,,,,,,,left,0,0.08364882548630703,,,,,,,,,,,1078,2019_Mar_15_1437,mf_amp_cond2,3.0.4,60.02317854089826,
restore,&&&&&&&&,left,care.virtue,counpy's,,,,,,,,,,,,,,,0,239,239,257,,,,,,,,,,,,,AMP,left,0.06692303744785022,1,,,,,,,,,,,,,,left,1,0.06692303744785022,,,,,,,,,,,1078,2019_Mar_15_1437,mf_amp_cond2,3.0.4,60.02317854089826,
faith,&&&&&&&,left,sanctity.virtue,halaise,,,,,,,,,,,,,,,0,240,240,214,,,,,,,,,,,,,AMP,left,0.11680436707683839,1,,,,,,,,,,,,,,left,1,0.11680436707683839,,,,,,,,,,,1078,2019_Mar_15_1437,mf_amp_cond2,3.0.4,60.02317854089826,
growth,&&&&&&,left,care.virtue,antral,,,,,,,,,,,,,,,0,241,241,304,,,,,,,,,,,,,AMP,left,0.15029058206710033,1,,,,,,,,,,,,,,left,1,0.15029058206710033,,,,,,,,,,,1078,2019_Mar_15_1437,mf_amp_cond2,3.0.4,60.02317854089826,
died,&&&&&&&,right,care.vice,emports,,,,,,,,,,,,,,,0,242,242,323,,,,,,,,,,,,,AMP,left,0.3503367672965396,0,,,,,,,,,,,,,,left,0,0.3503367672965396,,,,,,,,,,,1078,2019_Mar_15_1437,mf_amp_cond2,3.0.4,60.02317854089826,
