words,mask,corr_ans,category,nonwords,LDT_pracloop.thisRepN,LDT_pracloop.thisTrialN,LDT_pracloop.thisN,LDT_pracloop.thisIndex,LDT_trials.thisRepN,LDT_trials.thisTrialN,LDT_trials.thisN,LDT_trials.thisIndex,AMP_pracloop.thisRepN,AMP_pracloop.thisTrialN,AMP_pracloop.thisN,AMP_pracloop.thisIndex,AMP_trials.thisRepN,AMP_trials.thisTrialN,AMP_trials.thisN,AMP_trials.thisIndex,tweet_loop.thisRepN,tweet_loop.thisTrialN,tweet_loop.thisN,tweet_loop.thisIndex,tweets,topic,begin_key.keys,begin_key.rt,key_resp_AMP_instr1.keys,key_resp_AMP_instr1.rt,key_resp_LDT_instr.keys,key_resp_LDT_instr.rt,resp_LDT_prac.keys,resp_LDT_prac.rt,task,keypress,RT,corr,resp_LDT_ready.keys,resp_LDT_ready.rt,resp_LDT.keys,resp_LDT.corr,resp_LDT.rt,LDT_rating.response,LDT_rating.rt,resp_AMP_ready1.keys,resp_AMP_ready1.rt,resp_AMP_prac.keys,resp_AMP_prac.rt,resp_AMP_ready.keys,resp_AMP_ready.rt,resp_AMP.keys,resp_AMP.corr,resp_AMP.rt,AMP_nonword_rating.response,AMP_nonword_rating.rt,AMP_word_rating.response,AMP_word_rating.rt,AMP_random_rating.response,AMP_random_rating.rt,key_resp_LDT_instr_2.keys,key_resp_LDT_instr_2.rt,participant,date,expName,psychopyVersion,frameRate,
,,,,,,,,,,,,,,,,,,,,,,,,,,,right,1754.4863068639097,,,,,,,,,,,,,,,,,,,,,,,,,,,,,,,,,,,1080,2019_Mar_15_1438,mf_amp_cond2,3.0.4,59.99020669877912,
,,,,,,,,,,,,,,,,,,,,,,,,,,,,,right,2.467418806409114,,,,,,,,,,,,,,,,,,,,,,,,,,,,,,,,,1080,2019_Mar_15_1438,mf_amp_cond2,3.0.4,59.99020669877912,
,,,,,,,,,,,,,,,,,,,,,,,,,,,,,,,right,2.434232567626168,,,,,,,,,,,,,,,,,,,,,,,,,,,,,,,1080,2019_Mar_15_1438,mf_amp_cond2,3.0.4,59.99020669877912,
keyboard,&&&&&&&,,,,0,0,0,0,,,,,,,,,,,,,,,,,,,,,,,,,left,2.217501633291249,LDT_prac,left,2.217501633291249,0,,,,,,,,,,,,,,,,,,,,,,,,,1080,2019_Mar_15_1438,mf_amp_cond2,3.0.4,59.99020669877912,
bisebell,&&&&&&&,,,,0,1,1,1,,,,,,,,,,,,,,,,,,,,,,,,,left,2.8676556287391577,LDT_prac,left,2.8676556287391577,0,,,,,,,,,,,,,,,,,,,,,,,,,1080,2019_Mar_15_1438,mf_amp_cond2,3.0.4,59.99020669877912,
,,,,,,,,,,,,,,,,,,,,,,,,,,,,,,,,,,,,,,,right,2.1841466938640224,,,,,,,,,,,,,,,,,,,,,,,1080,2019_Mar_15_1438,mf_amp_cond2,3.0.4,59.99020669877912,
were,&&&&,left,neutral,,,,,,0,0,0,56,,,,,,,,,,,,,,,,,,,,,,,LDT,left,6.4685820710874395,1,,,left,1,6.4685820710874395,,,,,,,,,,,,,,,,,,,,1080,2019_Mar_15_1438,mf_amp_cond2,3.0.4,59.99020669877912,
strength,&&&&&&&&,left,sanctity.virtue,,,,,,0,1,1,41,,,,,,,,,,,,,,,,,,,,,,,LDT,left,0.9338282954558963,1,,,left,1,0.9338282954558963,,,,,,,,,,,,,,,,,,,,1080,2019_Mar_15_1438,mf_amp_cond2,3.0.4,59.99020669877912,
chressing,&&&&&&&&&,None,nonword,,,,,,0,2,2,7,,,,,,,,,,,,,,,,,,,,,,,LDT,left,1.784042971834424,0,,,left,0,1.784042971834424,,,,,,,,,,,,,,,,,,,,1080,2019_Mar_15_1438,mf_amp_cond2,3.0.4,59.99020669877912,
seem,&&&&,left,neutral,,,,,,0,3,3,57,,,,,,,,,,,,,,,,,,,,,,,LDT,left,2.66761290836439,1,,,left,1,2.66761290836439,,,,,,,,,,,,,,,,,,,,1080,2019_Mar_15_1438,mf_amp_cond2,3.0.4,59.99020669877912,
gazily,&&&&&&,right,nonword,,,,,,0,4,4,6,,,,,,,,,,,,,,,,,,,,,,,LDT,left,2.417569690849632,0,,,left,0,2.417569690849632,,,,,,,,,,,,,,,,,,,,1080,2019_Mar_15_1438,mf_amp_cond2,3.0.4,59.99020669877912,
illegal,&&&&&&&,left,fairness.vice,,,,,,0,5,5,48,,,,,,,,,,,,,,,,,,,,,,,LDT,left,1.9174024334643036,1,,,left,1,1.9174024334643036,,,,,,,,,,,,,,,,,,,,1080,2019_Mar_15_1438,mf_amp_cond2,3.0.4,59.99020669877912,
about,&&&&&,left,neutral,,,,,,0,6,6,138,,,,,,,,,,,,,,,,,,,,,,,LDT,left,2.384190055716317,1,,,left,1,2.384190055716317,,,,,,,,,,,,,,,,,,,,1080,2019_Mar_15_1438,mf_amp_cond2,3.0.4,59.99020669877912,
celebrated,&&&&&&&&&&,left,authority.virtue,,,,,,0,7,7,47,,,,,,,,,,,,,,,,,,,,,,,LDT,left,3.0843718097894453,1,,,left,1,3.0843718097894453,,,,,,,,,,,,,,,,,,,,1080,2019_Mar_15_1438,mf_amp_cond2,3.0.4,59.99020669877912,
could,&&&&&,left,neutral,,,,,,0,8,8,116,,,,,,,,,,,,,,,,,,,,,,,LDT,right,2.4175437122321455,0,,,right,0,2.4175437122321455,,,,,,,,,,,,,,,,,,,,1080,2019_Mar_15_1438,mf_amp_cond2,3.0.4,59.99020669877912,
promised,&&&&&&&&,left,loyalty.virtue,,,,,,0,9,9,69,,,,,,,,,,,,,,,,,,,,,,,LDT,right,0.9671553319203667,0,,,right,0,0.9671553319203667,,,,,,,,,,,,,,,,,,,,1080,2019_Mar_15_1438,mf_amp_cond2,3.0.4,59.99020669877912,
compassion,&&&&&&&&&&,left,care.virtue,,,,,,0,10,10,36,,,,,,,,,,,,,,,,,,,,,,,LDT,left,1.7840426511247642,1,,,left,1,1.7840426511247642,,,,,,,,,,,,,,,,,,,,1080,2019_Mar_15_1438,mf_amp_cond2,3.0.4,59.99020669877912,
increase,&&&&&&&&,left,care.virtue,,,,,,0,11,11,184,,,,,,,,,,,,,,,,,,,,,,,LDT,right,0.717024556841352,0,,,right,0,0.717024556841352,,,,,,,,,,,,,,,,,,,,1080,2019_Mar_15_1438,mf_amp_cond2,3.0.4,59.99020669877912,
sonvoy,&&&&&&,None,nonword,,,,,,0,12,12,156,,,,,,,,,,,,,,,,,,,,,,,LDT,right,1.7340110437944531,0,,,right,0,1.7340110437944531,,,,,,,,,,,,,,,,,,,,1080,2019_Mar_15_1438,mf_amp_cond2,3.0.4,59.99020669877912,
although,&&&&&&&&,left,neutral,,,,,,0,13,13,92,,,,,,,,,,,,,,,,,,,,,,,LDT,right,0.8337977946357569,0,,,right,0,0.8337977946357569,,,,,,,,,,,,,,,,,,,,1080,2019_Mar_15_1438,mf_amp_cond2,3.0.4,59.99020669877912,
also,&&&&,left,neutral,,,,,,0,14,14,175,,,,,,,,,,,,,,,,,,,,,,,LDT,left,0.9338183530198876,1,,,left,1,0.9338183530198876,,,,,,,,,,,,,,,,,,,,1080,2019_Mar_15_1438,mf_amp_cond2,3.0.4,59.99020669877912,
amount,&&&&&&,left,neutral,,,,,,0,15,15,87,,,,,,,,,,,,,,,,,,,,,,,LDT,right,0.7504365850763861,0,,,right,0,0.7504365850763861,,,,,,,,,,,,,,,,,,,,1080,2019_Mar_15_1438,mf_amp_cond2,3.0.4,59.99020669877912,
either,&&&&&&,left,neutral,,,,,,0,16,16,73,,,,,,,,,,,,,,,,,,,,,,,LDT,right,0.9338260503864149,0,,,right,0,0.9338260503864149,,,,,,,,,,,,,,,,,,,,1080,2019_Mar_15_1438,mf_amp_cond2,3.0.4,59.99020669877912,
carvels,&&&&&&&,None,nonword,,,,,,0,17,17,14,,,,,,,,,,,,,,,,,,,,,,,LDT,right,1.3506250422942685,0,,,right,0,1.3506250422942685,,,,,,,,,,,,,,,,,,,,1080,2019_Mar_15_1438,mf_amp_cond2,3.0.4,59.99020669877912,
hefurbished,&&&&&&&&&&&,right,nonword,,,,,,0,18,18,173,,,,,,,,,,,,,,,,,,,,,,,LDT,left,1.4506549016659847,0,,,left,0,1.4506549016659847,,,,,,,,,,,,,,,,,,,,1080,2019_Mar_15_1438,mf_amp_cond2,3.0.4,59.99020669877912,
give,&&&&,left,neutral,,,,,,0,19,19,51,,,,,,,,,,,,,,,,,,,,,,,LDT,right,0.8671312455699081,0,,,right,0,0.8671312455699081,,,,,,,,,,,,,,,,,,,,1080,2019_Mar_15_1438,mf_amp_cond2,3.0.4,59.99020669877912,
divility,&&&&&&&&,right,nonword,,,,,,0,20,20,30,,,,,,,,,,,,,,,,,,,,,,,LDT,left,0.9671601427689893,0,,,left,0,0.9671601427689893,,,,,,,,,,,,,,,,,,,,1080,2019_Mar_15_1438,mf_amp_cond2,3.0.4,59.99020669877912,
reelectiob,&&&&&&&&&&,right,nonword,,,,,,0,21,21,185,,,,,,,,,,,,,,,,,,,,,,,LDT,left,0.717098644017824,0,,,left,0,0.717098644017824,,,,,,,,,,,,,,,,,,,,1080,2019_Mar_15_1438,mf_amp_cond2,3.0.4,59.99020669877912,
great,&&&&&,left,loyalty.virtue,,,,,,0,22,22,168,,,,,,,,,,,,,,,,,,,,,,,LDT,right,0.5503746212634724,0,,,right,0,0.5503746212634724,,,,,,,,,,,,,,,,,,,,1080,2019_Mar_15_1438,mf_amp_cond2,3.0.4,59.99020669877912,
men,&&&,left,loyalty.vice,,,,,,0,23,23,150,,,,,,,,,,,,,,,,,,,,,,,LDT,right,0.6337387173407478,0,,,right,0,0.6337387173407478,,,,,,,,,,,,,,,,,,,,1080,2019_Mar_15_1438,mf_amp_cond2,3.0.4,59.99020669877912,
ensure,&&&&&&,left,fairness.virtue,,,,,,0,24,24,166,,,,,,,,,,,,,,,,,,,,,,,LDT,right,0.6170286941778613,0,,,right,0,0.6170286941778613,,,,,,,,,,,,,,,,,,,,1080,2019_Mar_15_1438,mf_amp_cond2,3.0.4,59.99020669877912,
leact,&&&&&,right,nonword,,,,,,0,25,25,195,,,,,,,,,,,,,,,,,,,,,,,LDT,right,0.7671401937695919,1,,,right,1,0.7671401937695919,,,,,,,,,,,,,,,,,,,,1080,2019_Mar_15_1438,mf_amp_cond2,3.0.4,59.99020669877912,
sidearbs,&&&&&&&&,right,nonword,,,,,,0,26,26,28,,,,,,,,,,,,,,,,,,,,,,,LDT,right,0.6337913160241442,1,,,right,1,0.6337913160241442,,,,,,,,,,,,,,,,,,,,1080,2019_Mar_15_1438,mf_amp_cond2,3.0.4,59.99020669877912,
dumid,&&&&&,right,nonword,,,,,,0,27,27,1,,,,,,,,,,,,,,,,,,,,,,,LDT,left,0.9671540490235202,0,,,left,0,0.9671540490235202,,,,,,,,,,,,,,,,,,,,1080,2019_Mar_15_1438,mf_amp_cond2,3.0.4,59.99020669877912,
praised,&&&&&&&,left,loyalty.virtue,,,,,,0,28,28,80,,,,,,,,,,,,,,,,,,,,,,,LDT,right,0.6504089707741514,0,,,right,0,0.6504089707741514,,,,,,,,,,,,,,,,,,,,1080,2019_Mar_15_1438,mf_amp_cond2,3.0.4,59.99020669877912,
amoungst,&&&&&&&&,left,neutral,,,,,,0,29,29,60,,,,,,,,,,,,,,,,,,,,,,,LDT,right,0.9671611049416242,0,,,right,0,0.9671611049416242,,,,,,,,,,,,,,,,,,,,1080,2019_Mar_15_1438,mf_amp_cond2,3.0.4,59.99020669877912,
victims,&&&&&&&,left,care.vice,,,,,,0,30,30,188,,,,,,,,,,,,,,,,,,,,,,,LDT,right,0.6004075114760781,0,,,right,0,0.6004075114760781,,,,,,,,,,,,,,,,,,,,1080,2019_Mar_15_1438,mf_amp_cond2,3.0.4,59.99020669877912,
pistraught,&&&&&&&&&&,right,nonword,,,,,,0,31,31,22,,,,,,,,,,,,,,,,,,,,,,,LDT,left,0.7171056999213761,0,,,left,0,0.7171056999213761,,,,,,,,,,,,,,,,,,,,1080,2019_Mar_15_1438,mf_amp_cond2,3.0.4,59.99020669877912,
taxpayung,&&&&&&&&&,right,nonword,,,,,,0,32,32,146,,,,,,,,,,,,,,,,,,,,,,,LDT,right,0.7504641673003789,1,,,right,1,0.7504641673003789,,,,,,,,,,,,,,,,,,,,1080,2019_Mar_15_1438,mf_amp_cond2,3.0.4,59.99020669877912,
seachwear,&&&&&&&&&,right,nonword,,,,,,0,33,33,65,,,,,,,,,,,,,,,,,,,,,,,LDT,right,0.8337974739115452,1,,,right,1,0.8337974739115452,,,,,,,,,,,,,,,,,,,,1080,2019_Mar_15_1438,mf_amp_cond2,3.0.4,59.99020669877912,
progress,&&&&&&&&,left,authority.virtue,,,,,,0,34,34,17,,,,,,,,,,,,,,,,,,,,,,,LDT,right,0.6004370180598926,0,,,right,0,0.6004370180598926,,,,,,,,,,,,,,,,,,,,1080,2019_Mar_15_1438,mf_amp_cond2,3.0.4,59.99020669877912,
lempestuous,&&&&&&&&&&&,right,nonword,,,,,,0,35,35,153,,,,,,,,,,,,,,,,,,,,,,,LDT,right,0.6170617287280038,1,,,right,1,0.6170617287280038,,,,,,,,,,,,,,,,,,,,1080,2019_Mar_15_1438,mf_amp_cond2,3.0.4,59.99020669877912,
interests,&&&&&&&&&,left,fairness.virtue,,,,,,0,36,36,117,,,,,,,,,,,,,,,,,,,,,,,LDT,right,0.6337217189866351,0,,,right,0,0.6337217189866351,,,,,,,,,,,,,,,,,,,,1080,2019_Mar_15_1438,mf_amp_cond2,3.0.4,59.99020669877912,
latterly,&&&&&&&&,left,neutral,,,,,,0,37,37,78,,,,,,,,,,,,,,,,,,,,,,,LDT,left,1.067199303128291,1,,,left,1,1.067199303128291,,,,,,,,,,,,,,,,,,,,1080,2019_Mar_15_1438,mf_amp_cond2,3.0.4,59.99020669877912,
brotesque,&&&&&&&&&,right,nonword,,,,,,0,38,38,107,,,,,,,,,,,,,,,,,,,,,,,LDT,right,0.48370130492548924,1,,,right,1,0.48370130492548924,,,,,,,,,,,,,,,,,,,,1080,2019_Mar_15_1438,mf_amp_cond2,3.0.4,59.99020669877912,
suicide,&&&&&&&,left,care.vice,,,,,,0,39,39,20,,,,,,,,,,,,,,,,,,,,,,,LDT,right,1.3172912706359057,0,,,right,0,1.3172912706359057,,,,,,,,,,,,,,,,,,,,1080,2019_Mar_15_1438,mf_amp_cond2,3.0.4,59.99020669877912,
sfumatoy,&&&&&&&&,None,nonword,,,,,,0,40,40,35,,,,,,,,,,,,,,,,,,,,,,,LDT,right,0.6003882680670358,0,,,right,0,0.6003882680670358,,,,,,,,,,,,,,,,,,,,1080,2019_Mar_15_1438,mf_amp_cond2,3.0.4,59.99020669877912,
even,&&&&,left,neutral,,,,,,0,41,41,62,,,,,,,,,,,,,,,,,,,,,,,LDT,right,0.683765834532096,0,,,right,0,0.683765834532096,,,,,,,,,,,,,,,,,,,,1080,2019_Mar_15_1438,mf_amp_cond2,3.0.4,59.99020669877912,
fegard,&&&&&&,right,nonword,,,,,,0,42,42,183,,,,,,,,,,,,,,,,,,,,,,,LDT,right,0.617088990227785,1,,,right,1,0.617088990227785,,,,,,,,,,,,,,,,,,,,1080,2019_Mar_15_1438,mf_amp_cond2,3.0.4,59.99020669877912,
unscothed,&&&&&&&&&,right,nonword,,,,,,0,43,43,59,,,,,,,,,,,,,,,,,,,,,,,LDT,left,0.5337354780349415,0,,,left,0,0.5337354780349415,,,,,,,,,,,,,,,,,,,,1080,2019_Mar_15_1438,mf_amp_cond2,3.0.4,59.99020669877912,
fraud,&&&&&,left,fairness.vice,,,,,,0,44,44,83,,,,,,,,,,,,,,,,,,,,,,,LDT,right,0.6004052664065966,0,,,right,0,0.6004052664065966,,,,,,,,,,,,,,,,,,,,1080,2019_Mar_15_1438,mf_amp_cond2,3.0.4,59.99020669877912,
there,&&&&&,left,neutral,,,,,,0,45,45,162,,,,,,,,,,,,,,,,,,,,,,,LDT,right,0.5337107823143015,0,,,right,0,0.5337107823143015,,,,,,,,,,,,,,,,,,,,1080,2019_Mar_15_1438,mf_amp_cond2,3.0.4,59.99020669877912,
whereafter,&&&&&&&&&&,left,neutral,,,,,,0,46,46,148,,,,,,,,,,,,,,,,,,,,,,,LDT,right,0.5670865687716287,0,,,right,0,0.5670865687716287,,,,,,,,,,,,,,,,,,,,1080,2019_Mar_15_1438,mf_amp_cond2,3.0.4,59.99020669877912,
hereby,&&&&&&,left,neutral,,,,,,0,47,47,144,,,,,,,,,,,,,,,,,,,,,,,LDT,right,0.5170780535554513,0,,,right,0,0.5170780535554513,,,,,,,,,,,,,,,,,,,,1080,2019_Mar_15_1438,mf_amp_cond2,3.0.4,59.99020669877912,
nomaric,&&&&&&&,None,nonword,,,,,,0,48,48,76,,,,,,,,,,,,,,,,,,,,,,,LDT,left,0.8338244147016667,0,,,left,0,0.8338244147016667,,,,,,,,,,,,,,,,,,,,1080,2019_Mar_15_1438,mf_amp_cond2,3.0.4,59.99020669877912,
framo,&&&&&,right,nonword,,,,,,0,49,49,71,,,,,,,,,,,,,,,,,,,,,,,LDT,right,0.6504060842562467,1,,,right,1,0.6504060842562467,,,,,,,,,,,,,,,,,,,,1080,2019_Mar_15_1438,mf_amp_cond2,3.0.4,59.99020669877912,
ability,&&&&&&&,left,authority.virtue,,,,,,0,50,50,100,,,,,,,,,,,,,,,,,,,,,,,LDT,left,1.3672994651278714,1,,,left,1,1.3672994651278714,,,,,,,,,,,,,,,,,,,,1080,2019_Mar_15_1438,mf_amp_cond2,3.0.4,59.99020669877912,
everything,&&&&&&&&&&,left,neutral,,,,,,0,51,51,42,,,,,,,,,,,,,,,,,,,,,,,LDT,right,0.8171227303682826,0,,,right,0,0.8171227303682826,,,,,,,,,,,,,,,,,,,,1080,2019_Mar_15_1438,mf_amp_cond2,3.0.4,59.99020669877912,
nackers,&&&&&&&,right,nonword,,,,,,0,52,52,165,,,,,,,,,,,,,,,,,,,,,,,LDT,right,0.483690079592634,1,,,right,1,0.483690079592634,,,,,,,,,,,,,,,,,,,,1080,2019_Mar_15_1438,mf_amp_cond2,3.0.4,59.99020669877912,
mecan,&&&&&,right,nonword,,,,,,0,53,53,79,,,,,,,,,,,,,,,,,,,,,,,LDT,right,0.5170373216533335,1,,,right,1,0.5170373216533335,,,,,,,,,,,,,,,,,,,,1080,2019_Mar_15_1438,mf_amp_cond2,3.0.4,59.99020669877912,
blunderints,&&&&&&&&&&&,right,nonword,,,,,,0,54,54,34,,,,,,,,,,,,,,,,,,,,,,,LDT,left,0.8337910594418645,0,,,left,0,0.8337910594418645,,,,,,,,,,,,,,,,,,,,1080,2019_Mar_15_1438,mf_amp_cond2,3.0.4,59.99020669877912,
integrity,&&&&&&&&&,left,fairness.virtue,,,,,,0,55,55,124,,,,,,,,,,,,,,,,,,,,,,,LDT,left,1.917406602864503,1,,,left,1,1.917406602864503,,,,,,,,,,,,,,,,,,,,1080,2019_Mar_15_1438,mf_amp_cond2,3.0.4,59.99020669877912,
anything,&&&&&&&&,left,neutral,,,,,,0,56,56,84,,,,,,,,,,,,,,,,,,,,,,,LDT,right,0.567048402648652,0,,,right,0,0.567048402648652,,,,,,,,,,,,,,,,,,,,1080,2019_Mar_15_1438,mf_amp_cond2,3.0.4,59.99020669877912,
loyalty,&&&&&&&,left,loyalty.virtue,,,,,,0,57,57,114,,,,,,,,,,,,,,,,,,,,,,,LDT,right,1.7506989370303927,0,,,right,0,1.7506989370303927,,,,,,,,,,,,,,,,,,,,1080,2019_Mar_15_1438,mf_amp_cond2,3.0.4,59.99020669877912,
torture,&&&&&&&,left,care.vice,,,,,,0,58,58,12,,,,,,,,,,,,,,,,,,,,,,,LDT,right,0.7004351257783128,0,,,right,0,0.7004351257783128,,,,,,,,,,,,,,,,,,,,1080,2019_Mar_15_1438,mf_amp_cond2,3.0.4,59.99020669877912,
care,&&&&,left,care.virtue,,,,,,0,59,59,2,,,,,,,,,,,,,,,,,,,,,,,LDT,right,0.6170729540463071,0,,,right,0,0.6170729540463071,,,,,,,,,,,,,,,,,,,,1080,2019_Mar_15_1438,mf_amp_cond2,3.0.4,59.99020669877912,
hence,&&&&&,left,neutral,,,,,,0,60,60,89,,,,,,,,,,,,,,,,,,,,,,,LDT,right,0.6837488361634314,0,,,right,0,0.6837488361634314,,,,,,,,,,,,,,,,,,,,1080,2019_Mar_15_1438,mf_amp_cond2,3.0.4,59.99020669877912,
serial,&&&&&&,left,sanctity.vice,,,,,,0,61,61,197,,,,,,,,,,,,,,,,,,,,,,,LDT,right,0.6670728097233223,0,,,right,0,0.6670728097233223,,,,,,,,,,,,,,,,,,,,1080,2019_Mar_15_1438,mf_amp_cond2,3.0.4,59.99020669877912,
latter,&&&&&&,left,neutral,,,,,,0,62,62,63,,,,,,,,,,,,,,,,,,,,,,,LDT,left,0.6504205168166663,1,,,left,1,0.6504205168166663,,,,,,,,,,,,,,,,,,,,1080,2019_Mar_15_1438,mf_amp_cond2,3.0.4,59.99020669877912,
viscs,&&&&&,None,nonword,,,,,,0,63,63,90,,,,,,,,,,,,,,,,,,,,,,,LDT,right,2.1007915780646726,0,,,right,0,2.1007915780646726,,,,,,,,,,,,,,,,,,,,1080,2019_Mar_15_1438,mf_amp_cond2,3.0.4,59.99020669877912,
toward,&&&&&&,left,neutral,,,,,,0,64,64,94,,,,,,,,,,,,,,,,,,,,,,,LDT,right,2.784307568857912,0,,,right,0,2.784307568857912,,,,,,,,,,,,,,,,,,,,1080,2019_Mar_15_1438,mf_amp_cond2,3.0.4,59.99020669877912,
laming,&&&&&&,right,nonword,,,,,,0,65,65,95,,,,,,,,,,,,,,,,,,,,,,,LDT,right,3.401123943986022,1,,,right,1,3.401123943986022,,,,,,,,,,,,,,,,,,,,1080,2019_Mar_15_1438,mf_amp_cond2,3.0.4,59.99020669877912,
officers,&&&&&&&&,left,authority.vice,,,,,,0,66,66,44,,,,,,,,,,,,,,,,,,,,,,,LDT,left,2.6675808360014344,1,,,left,1,2.6675808360014344,,,,,,,,,,,,,,,,,,,,1080,2019_Mar_15_1438,mf_amp_cond2,3.0.4,59.99020669877912,
growth,&&&&&&,left,care.virtue,,,,,,0,67,67,40,,,,,,,,,,,,,,,,,,,,,,,LDT,right,0.4837016256497009,0,,,right,0,0.4837016256497009,,,,,,,,,,,,,,,,,,,,1080,2019_Mar_15_1438,mf_amp_cond2,3.0.4,59.99020669877912,
glacenta,&&&&&&&&,right,nonword,,,,,,0,68,68,91,,,,,,,,,,,,,,,,,,,,,,,LDT,left,1.0005038568633609,0,,,left,0,1.0005038568633609,,,,,,,,,,,,,,,,,,,,1080,2019_Mar_15_1438,mf_amp_cond2,3.0.4,59.99020669877912,
pafer,&&&&&,right,nonword,,,,,,0,69,69,135,,,,,,,,,,,,,,,,,,,,,,,LDT,right,0.5670641181059182,1,,,right,1,0.5670641181059182,,,,,,,,,,,,,,,,,,,,1080,2019_Mar_15_1438,mf_amp_cond2,3.0.4,59.99020669877912,
fifty,&&&&&,left,neutral,,,,,,0,70,70,3,,,,,,,,,,,,,,,,,,,,,,,LDT,left,1.7840939668967621,1,,,left,1,1.7840939668967621,,,,,,,,,,,,,,,,,,,,1080,2019_Mar_15_1438,mf_amp_cond2,3.0.4,59.99020669877912,
prison,&&&&&&,left,fairness.vice,,,,,,0,71,71,186,,,,,,,,,,,,,,,,,,,,,,,LDT,right,0.4170356859540334,0,,,right,0,0.4170356859540334,,,,,,,,,,,,,,,,,,,,1080,2019_Mar_15_1438,mf_amp_cond2,3.0.4,59.99020669877912,
shoirmaster,&&&&&&&&&&&,right,nonword,,,,,,0,72,72,93,,,,,,,,,,,,,,,,,,,,,,,LDT,right,1.400600843684515,1,,,right,1,1.400600843684515,,,,,,,,,,,,,,,,,,,,1080,2019_Mar_15_1438,mf_amp_cond2,3.0.4,59.99020669877912,
slending,&&&&&&&&,right,nonword,,,,,,0,73,73,161,,,,,,,,,,,,,,,,,,,,,,,LDT,right,0.7671055556129431,1,,,right,1,0.7671055556129431,,,,,,,,,,,,,,,,,,,,1080,2019_Mar_15_1438,mf_amp_cond2,3.0.4,59.99020669877912,
mostly,&&&&&&,left,neutral,,,,,,0,74,74,123,,,,,,,,,,,,,,,,,,,,,,,LDT,right,1.4339509722485673,0,,,right,0,1.4339509722485673,,,,,,,,,,,,,,,,,,,,1080,2019_Mar_15_1438,mf_amp_cond2,3.0.4,59.99020669877912,
values,&&&&&&,left,sanctity.virtue,,,,,,0,75,75,125,,,,,,,,,,,,,,,,,,,,,,,LDT,left,2.300777209631633,1,,,left,1,2.300777209631633,,,,,,,,,,,,,,,,,,,,1080,2019_Mar_15_1438,mf_amp_cond2,3.0.4,59.99020669877912,
ejanulated,&&&&&&&&&&,right,nonword,,,,,,0,76,76,49,,,,,,,,,,,,,,,,,,,,,,,LDT,left,0.8004624193708878,0,,,left,0,0.8004624193708878,,,,,,,,,,,,,,,,,,,,1080,2019_Mar_15_1438,mf_amp_cond2,3.0.4,59.99020669877912,
less,&&&&,left,neutral,,,,,,0,77,77,5,,,,,,,,,,,,,,,,,,,,,,,LDT,right,0.9504982281505363,0,,,right,0,0.9504982281505363,,,,,,,,,,,,,,,,,,,,1080,2019_Mar_15_1438,mf_amp_cond2,3.0.4,59.99020669877912,
iptervention,&&&&&&&&&&&&,right,nonword,,,,,,0,78,78,181,,,,,,,,,,,,,,,,,,,,,,,LDT,left,1.9674231361714192,0,,,left,0,1.9674231361714192,,,,,,,,,,,,,,,,,,,,1080,2019_Mar_15_1438,mf_amp_cond2,3.0.4,59.99020669877912,
oam,&&&,right,nonword,,,,,,0,79,79,112,,,,,,,,,,,,,,,,,,,,,,,LDT,left,0.6170710297155892,0,,,left,0,0.6170710297155892,,,,,,,,,,,,,,,,,,,,1080,2019_Mar_15_1438,mf_amp_cond2,3.0.4,59.99020669877912,
ugeasily,&&&&&&&&,right,nonword,,,,,,0,80,80,25,,,,,,,,,,,,,,,,,,,,,,,LDT,left,0.9171394400618738,0,,,left,0,0.9171394400618738,,,,,,,,,,,,,,,,,,,,1080,2019_Mar_15_1438,mf_amp_cond2,3.0.4,59.99020669877912,
tislay,&&&&&&,right,nonword,,,,,,0,81,81,67,,,,,,,,,,,,,,,,,,,,,,,LDT,right,1.6840220927260816,1,,,right,1,1.6840220927260816,,,,,,,,,,,,,,,,,,,,1080,2019_Mar_15_1438,mf_amp_cond2,3.0.4,59.99020669877912,
drug,&&&&,left,sanctity.vice,,,,,,0,82,82,113,,,,,,,,,,,,,,,,,,,,,,,LDT,right,0.6170816135854693,0,,,right,0,0.6170816135854693,,,,,,,,,,,,,,,,,,,,1080,2019_Mar_15_1438,mf_amp_cond2,3.0.4,59.99020669877912,
supervuned,&&&&&&&&&&,right,nonword,,,,,,0,83,83,19,,,,,,,,,,,,,,,,,,,,,,,LDT,right,2.6175915641942993,1,,,right,1,2.6175915641942993,,,,,,,,,,,,,,,,,,,,1080,2019_Mar_15_1438,mf_amp_cond2,3.0.4,59.99020669877912,
therefore,&&&&&&&&&,left,neutral,,,,,,0,84,84,187,,,,,,,,,,,,,,,,,,,,,,,LDT,right,0.5837417481816374,0,,,right,0,0.5837417481816374,,,,,,,,,,,,,,,,,,,,1080,2019_Mar_15_1438,mf_amp_cond2,3.0.4,59.99020669877912,
both,&&&&,left,neutral,,,,,,0,85,85,74,,,,,,,,,,,,,,,,,,,,,,,LDT,right,1.2172572418639902,0,,,right,0,1.2172572418639902,,,,,,,,,,,,,,,,,,,,1080,2019_Mar_15_1438,mf_amp_cond2,3.0.4,59.99020669877912,
gandbrake,&&&&&&&&&,right,nonword,,,,,,0,86,86,27,,,,,,,,,,,,,,,,,,,,,,,LDT,left,1.2172357533854665,0,,,left,0,1.2172357533854665,,,,,,,,,,,,,,,,,,,,1080,2019_Mar_15_1438,mf_amp_cond2,3.0.4,59.99020669877912,
yane,&&&&,right,nonword,,,,,,0,87,87,82,,,,,,,,,,,,,,,,,,,,,,,LDT,right,0.7337647280219244,1,,,right,1,0.7337647280219244,,,,,,,,,,,,,,,,,,,,1080,2019_Mar_15_1438,mf_amp_cond2,3.0.4,59.99020669877912,
nomparisons,&&&&&&&&&&&,right,nonword,,,,,,0,88,88,110,,,,,,,,,,,,,,,,,,,,,,,LDT,right,0.7504494140302995,1,,,right,1,0.7504494140302995,,,,,,,,,,,,,,,,,,,,1080,2019_Mar_15_1438,mf_amp_cond2,3.0.4,59.99020669877912,
presentkess,&&&&&&&&&&&,right,nonword,,,,,,0,89,89,118,,,,,,,,,,,,,,,,,,,,,,,LDT,left,0.7004332014475949,0,,,left,0,0.7004332014475949,,,,,,,,,,,,,,,,,,,,1080,2019_Mar_15_1438,mf_amp_cond2,3.0.4,59.99020669877912,
whither,&&&&&&&,left,neutral,,,,,,0,90,90,21,,,,,,,,,,,,,,,,,,,,,,,LDT,right,0.5337232905294513,0,,,right,0,0.5337232905294513,,,,,,,,,,,,,,,,,,,,1080,2019_Mar_15_1438,mf_amp_cond2,3.0.4,59.99020669877912,
voter,&&&&&,left,fairness.vice,,,,,,0,91,91,169,,,,,,,,,,,,,,,,,,,,,,,LDT,right,0.48371413387940265,0,,,right,0,0.48371413387940265,,,,,,,,,,,,,,,,,,,,1080,2019_Mar_15_1438,mf_amp_cond2,3.0.4,59.99020669877912,
credit,&&&&&&,left,fairness.virtue,,,,,,0,92,92,192,,,,,,,,,,,,,,,,,,,,,,,LDT,left,0.3169933183671674,1,,,left,1,0.3169933183671674,,,,,,,,,,,,,,,,,,,,1080,2019_Mar_15_1438,mf_amp_cond2,3.0.4,59.99020669877912,
grovelire,&&&&&&&&&,right,nonword,,,,,,0,93,93,172,,,,,,,,,,,,,,,,,,,,,,,LDT,right,0.35034152258594986,1,,,right,1,0.35034152258594986,,,,,,,,,,,,,,,,,,,,1080,2019_Mar_15_1438,mf_amp_cond2,3.0.4,59.99020669877912,
antral,&&&&&&,right,nonword,,,,,,0,94,94,164,,,,,,,,,,,,,,,,,,,,,,,LDT,left,0.30032434783061035,0,,,left,0,0.30032434783061035,,,,,,,,,,,,,,,,,,,,1080,2019_Mar_15_1438,mf_amp_cond2,3.0.4,59.99020669877912,
lenon,&&&&&,right,nonword,,,,,,0,95,95,167,,,,,,,,,,,,,,,,,,,,,,,LDT,left,0.6003972483158577,0,,,left,0,0.6003972483158577,,,,,,,,,,,,,,,,,,,,1080,2019_Mar_15_1438,mf_amp_cond2,3.0.4,59.99020669877912,
spag,&&&&,None,nonword,,,,,,0,96,96,106,,,,,,,,,,,,,,,,,,,,,,,LDT,right,0.6837247819057666,0,,,right,0,0.6837247819057666,,,,,,,,,,,,,,,,,,,,1080,2019_Mar_15_1438,mf_amp_cond2,3.0.4,59.99020669877912,
become,&&&&&&,left,neutral,,,,,,0,97,97,121,,,,,,,,,,,,,,,,,,,,,,,LDT,left,0.9836867120029638,1,,,left,1,0.9836867120029638,,,,,,,,,,,,,,,,,,,,1080,2019_Mar_15_1438,mf_amp_cond2,3.0.4,59.99020669877912,
wump,&&&&,right,nonword,,,,,,0,98,98,99,,,,,,,,,,,,,,,,,,,,,,,LDT,left,0.7004239004600095,0,,,left,0,0.7004239004600095,,,,,,,,,,,,,,,,,,,,1080,2019_Mar_15_1438,mf_amp_cond2,3.0.4,59.99020669877912,
synchronazers,&&&&&&&&&&&&&,right,nonword,,,,,,0,99,99,189,,,,,,,,,,,,,,,,,,,,,,,LDT,left,1.0838641042500967,0,,,left,0,1.0838641042500967,,,,,,,,,,,,,,,,,,,,1080,2019_Mar_15_1438,mf_amp_cond2,3.0.4,59.99020669877912,
dramens,&&&&&&&,right,nonword,,,,,,0,100,100,15,,,,,,,,,,,,,,,,,,,,,,,LDT,left,1.2505499608960235,0,,,left,0,1.2505499608960235,,,,,,,,,,,,,,,,,,,,1080,2019_Mar_15_1438,mf_amp_cond2,3.0.4,59.99020669877912,
photocalkodes,&&&&&&&&&&&&&,right,nonword,,,,,,0,101,101,133,,,,,,,,,,,,,,,,,,,,,,,LDT,right,0.7671103664615657,1,,,right,1,0.7671103664615657,,,,,,,,,,,,,,,,,,,,1080,2019_Mar_15_1438,mf_amp_cond2,3.0.4,59.99020669877912,
alar,&&&&,right,nonword,,,,,,0,102,102,101,,,,,,,,,,,,,,,,,,,,,,,LDT,left,1.1505441557819722,0,,,left,0,1.1505441557819722,,,,,,,,,,,,,,,,,,,,1080,2019_Mar_15_1438,mf_amp_cond2,3.0.4,59.99020669877912,
chared,&&&&&&,right,nonword,,,,,,0,103,103,77,,,,,,,,,,,,,,,,,,,,,,,LDT,right,0.533716555335559,1,,,right,1,0.533716555335559,,,,,,,,,,,,,,,,,,,,1080,2019_Mar_15_1438,mf_amp_cond2,3.0.4,59.99020669877912,
perfect,&&&&&&&,left,sanctity.virtue,,,,,,0,104,104,0,,,,,,,,,,,,,,,,,,,,,,,LDT,right,0.7004303149296902,0,,,right,0,0.7004303149296902,,,,,,,,,,,,,,,,,,,,1080,2019_Mar_15_1438,mf_amp_cond2,3.0.4,59.99020669877912,
threatened,&&&&&&&&&&,left,fairness.vice,,,,,,0,105,105,86,,,,,,,,,,,,,,,,,,,,,,,LDT,left,1.0338485331303673,1,,,left,1,1.0338485331303673,,,,,,,,,,,,,,,,,,,,1080,2019_Mar_15_1438,mf_amp_cond2,3.0.4,59.99020669877912,
faith,&&&&&,left,sanctity.virtue,,,,,,0,106,106,111,,,,,,,,,,,,,,,,,,,,,,,LDT,right,1.3505984222429106,0,,,right,0,1.3505984222429106,,,,,,,,,,,,,,,,,,,,1080,2019_Mar_15_1438,mf_amp_cond2,3.0.4,59.99020669877912,
arrests,&&&&&&&,left,authority.vice,,,,,,0,107,107,149,,,,,,,,,,,,,,,,,,,,,,,LDT,right,0.9838303962023929,0,,,right,0,0.9838303962023929,,,,,,,,,,,,,,,,,,,,1080,2019_Mar_15_1438,mf_amp_cond2,3.0.4,59.99020669877912,
honored,&&&&&&&,left,authority.virtue,,,,,,0,108,108,32,,,,,,,,,,,,,,,,,,,,,,,LDT,right,1.0005044983117841,0,,,right,0,1.0005044983117841,,,,,,,,,,,,,,,,,,,,1080,2019_Mar_15_1438,mf_amp_cond2,3.0.4,59.99020669877912,
sexual,&&&&&&,left,sanctity.vice,,,,,,0,109,109,160,,,,,,,,,,,,,,,,,,,,,,,LDT,right,0.6504157059680438,0,,,right,0,0.6504157059680438,,,,,,,,,,,,,,,,,,,,1080,2019_Mar_15_1438,mf_amp_cond2,3.0.4,59.99020669877912,
army,&&&&,left,loyalty.vice,,,,,,0,110,110,163,,,,,,,,,,,,,,,,,,,,,,,LDT,right,0.8003039818722755,0,,,right,0,0.8003039818722755,,,,,,,,,,,,,,,,,,,,1080,2019_Mar_15_1438,mf_amp_cond2,3.0.4,59.99020669877912,
gournful,&&&&&&&&,right,nonword,,,,,,0,111,111,39,,,,,,,,,,,,,,,,,,,,,,,LDT,left,0.6170700675429543,0,,,left,0,0.6170700675429543,,,,,,,,,,,,,,,,,,,,1080,2019_Mar_15_1438,mf_amp_cond2,3.0.4,59.99020669877912,
reviked,&&&&&&&,right,nonword,,,,,,0,112,112,88,,,,,,,,,,,,,,,,,,,,,,,LDT,left,0.9503551854140824,0,,,left,0,0.9503551854140824,,,,,,,,,,,,,,,,,,,,1080,2019_Mar_15_1438,mf_amp_cond2,3.0.4,59.99020669877912,
fifteen,&&&&&&&,left,neutral,,,,,,0,113,113,26,,,,,,,,,,,,,,,,,,,,,,,LDT,right,0.5504012413293822,0,,,right,0,0.5504012413293822,,,,,,,,,,,,,,,,,,,,1080,2019_Mar_15_1438,mf_amp_cond2,3.0.4,59.99020669877912,
energy,&&&&&&,left,sanctity.virtue,,,,,,0,114,114,128,,,,,,,,,,,,,,,,,,,,,,,LDT,right,0.4670438804459991,0,,,right,0,0.4670438804459991,,,,,,,,,,,,,,,,,,,,1080,2019_Mar_15_1438,mf_amp_cond2,3.0.4,59.99020669877912,
lursuer,&&&&&&&,right,nonword,,,,,,0,115,115,190,,,,,,,,,,,,,,,,,,,,,,,LDT,right,0.48370643651287537,1,,,right,1,0.48370643651287537,,,,,,,,,,,,,,,,,,,,1080,2019_Mar_15_1438,mf_amp_cond2,3.0.4,59.99020669877912,
gusinesslike,&&&&&&&&&&&&,right,nonword,,,,,,0,116,116,105,,,,,,,,,,,,,,,,,,,,,,,LDT,right,0.48370451216760557,1,,,right,1,0.48370451216760557,,,,,,,,,,,,,,,,,,,,1080,2019_Mar_15_1438,mf_amp_cond2,3.0.4,59.99020669877912,
strofe,&&&&&&,right,nonword,,,,,,0,117,117,171,,,,,,,,,,,,,,,,,,,,,,,LDT,left,0.3837150639737956,0,,,left,0,0.3837150639737956,,,,,,,,,,,,,,,,,,,,1080,2019_Mar_15_1438,mf_amp_cond2,3.0.4,59.99020669877912,
besides,&&&&&&&,left,neutral,,,,,,0,118,118,155,,,,,,,,,,,,,,,,,,,,,,,LDT,left,3.0176972105691675,1,,,left,1,3.0176972105691675,,,,,,,,,,,,,,,,,,,,1080,2019_Mar_15_1438,mf_amp_cond2,3.0.4,59.99020669877912,
sgrawl,&&&&&&,right,nonword,,,,,,0,119,119,137,,,,,,,,,,,,,,,,,,,,,,,LDT,left,1.3005834925425006,0,,,left,0,1.3005834925425006,,,,,,,,,,,,,,,,,,,,1080,2019_Mar_15_1438,mf_amp_cond2,3.0.4,59.99020669877912,
erks,&&&&,right,nonword,,,,,,0,120,120,8,,,,,,,,,,,,,,,,,,,,,,,LDT,left,1.1005279431992676,0,,,left,0,1.1005279431992676,,,,,,,,,,,,,,,,,,,,1080,2019_Mar_15_1438,mf_amp_cond2,3.0.4,59.99020669877912,
each,&&&&,left,neutral,,,,,,0,121,121,158,,,,,,,,,,,,,,,,,,,,,,,LDT,left,0.70043223927496,1,,,left,1,0.70043223927496,,,,,,,,,,,,,,,,,,,,1080,2019_Mar_15_1438,mf_amp_cond2,3.0.4,59.99020669877912,
three,&&&&&,left,neutral,,,,,,0,122,122,108,,,,,,,,,,,,,,,,,,,,,,,LDT,right,1.0338475709577324,0,,,right,0,1.0338475709577324,,,,,,,,,,,,,,,,,,,,1080,2019_Mar_15_1438,mf_amp_cond2,3.0.4,59.99020669877912,
fangsters,&&&&&&&&&,right,nonword,,,,,,0,123,123,61,,,,,,,,,,,,,,,,,,,,,,,LDT,right,0.5670708532998106,1,,,right,1,0.5670708532998106,,,,,,,,,,,,,,,,,,,,1080,2019_Mar_15_1438,mf_amp_cond2,3.0.4,59.99020669877912,
anyhow,&&&&&&,left,neutral,,,,,,0,124,124,151,,,,,,,,,,,,,,,,,,,,,,,LDT,left,0.7671106871857774,1,,,left,1,0.7671106871857774,,,,,,,,,,,,,,,,,,,,1080,2019_Mar_15_1438,mf_amp_cond2,3.0.4,59.99020669877912,
done,&&&&,left,neutral,,,,,,0,125,125,199,,,,,,,,,,,,,,,,,,,,,,,LDT,left,0.9338273332978133,1,,,left,1,0.9338273332978133,,,,,,,,,,,,,,,,,,,,1080,2019_Mar_15_1438,mf_amp_cond2,3.0.4,59.99020669877912,
further,&&&&&&&,left,neutral,,,,,,0,126,126,157,,,,,,,,,,,,,,,,,,,,,,,LDT,left,0.9338145043438999,1,,,left,1,0.9338145043438999,,,,,,,,,,,,,,,,,,,,1080,2019_Mar_15_1438,mf_amp_cond2,3.0.4,59.99020669877912,
ban,&&&,left,loyalty.vice,,,,,,0,127,127,119,,,,,,,,,,,,,,,,,,,,,,,LDT,right,0.9004772047192091,0,,,right,0,0.9004772047192091,,,,,,,,,,,,,,,,,,,,1080,2019_Mar_15_1438,mf_amp_cond2,3.0.4,59.99020669877912,
tracious,&&&&&&&&,right,nonword,,,,,,0,128,128,130,,,,,,,,,,,,,,,,,,,,,,,LDT,left,0.5337236112682149,0,,,left,0,0.5337236112682149,,,,,,,,,,,,,,,,,,,,1080,2019_Mar_15_1438,mf_amp_cond2,3.0.4,59.99020669877912,
shoirmaster,&&&&&&&&&&&,None,nonword,,,,,,0,129,129,170,,,,,,,,,,,,,,,,,,,,,,,LDT,left,0.5337200833018869,0,,,left,0,0.5337200833018869,,,,,,,,,,,,,,,,,,,,1080,2019_Mar_15_1438,mf_amp_cond2,3.0.4,59.99020669877912,
tomedians,&&&&&&&&&,right,nonword,,,,,,0,130,130,120,,,,,,,,,,,,,,,,,,,,,,,LDT,left,1.2505403391696746,0,,,left,0,1.2505403391696746,,,,,,,,,,,,,,,,,,,,1080,2019_Mar_15_1438,mf_amp_cond2,3.0.4,59.99020669877912,
neutralust,&&&&&&&&&&,right,nonword,,,,,,0,131,131,43,,,,,,,,,,,,,,,,,,,,,,,LDT,left,1.0505065990582807,0,,,left,0,1.0505065990582807,,,,,,,,,,,,,,,,,,,,1080,2019_Mar_15_1438,mf_amp_cond2,3.0.4,59.99020669877912,
penalty,&&&&&&&,left,authority.vice,,,,,,0,132,132,31,,,,,,,,,,,,,,,,,,,,,,,LDT,left,1.3672625819162931,1,,,left,1,1.3672625819162931,,,,,,,,,,,,,,,,,,,,1080,2019_Mar_15_1438,mf_amp_cond2,3.0.4,59.99020669877912,
gun,&&&,left,authority.vice,,,,,,0,133,133,129,,,,,,,,,,,,,,,,,,,,,,,LDT,right,0.5670493648358388,0,,,right,0,0.5670493648358388,,,,,,,,,,,,,,,,,,,,1080,2019_Mar_15_1438,mf_amp_cond2,3.0.4,59.99020669877912,
mightingale,&&&&&&&&&&&,right,nonword,,,,,,0,134,134,178,,,,,,,,,,,,,,,,,,,,,,,LDT,left,1.100445517236949,0,,,left,0,1.100445517236949,,,,,,,,,,,,,,,,,,,,1080,2019_Mar_15_1438,mf_amp_cond2,3.0.4,59.99020669877912,
rivernoat,&&&&&&&&&,right,nonword,,,,,,0,135,135,132,,,,,,,,,,,,,,,,,,,,,,,LDT,left,3.717895321577089,0,,,left,0,3.717895321577089,,,,,,,,,,,,,,,,,,,,1080,2019_Mar_15_1438,mf_amp_cond2,3.0.4,59.99020669877912,
fear,&&&&,left,sanctity.vice,,,,,,0,136,136,102,,,,,,,,,,,,,,,,,,,,,,,LDT,right,0.48370451215305366,0,,,right,0,0.48370451215305366,,,,,,,,,,,,,,,,,,,,1080,2019_Mar_15_1438,mf_amp_cond2,3.0.4,59.99020669877912,
wherever,&&&&&&&&,left,neutral,,,,,,0,137,137,134,,,,,,,,,,,,,,,,,,,,,,,LDT,left,0.9838339241541689,1,,,left,1,0.9838339241541689,,,,,,,,,,,,,,,,,,,,1080,2019_Mar_15_1438,mf_amp_cond2,3.0.4,59.99020669877912,
Daptist,&&&&&&&,right,nonword,,,,,,0,138,138,174,,,,,,,,,,,,,,,,,,,,,,,LDT,left,0.9004935616394505,0,,,left,0,0.9004935616394505,,,,,,,,,,,,,,,,,,,,1080,2019_Mar_15_1438,mf_amp_cond2,3.0.4,59.99020669877912,
infet,&&&&&,right,nonword,,,,,,0,139,139,46,,,,,,,,,,,,,,,,,,,,,,,LDT,right,0.5837308435729938,1,,,right,1,0.5837308435729938,,,,,,,,,,,,,,,,,,,,1080,2019_Mar_15_1438,mf_amp_cond2,3.0.4,59.99020669877912,
prones,&&&&&&,right,nonword,,,,,,0,140,140,97,,,,,,,,,,,,,,,,,,,,,,,LDT,left,0.5170523956621764,0,,,left,0,0.5170523956621764,,,,,,,,,,,,,,,,,,,,1080,2019_Mar_15_1438,mf_amp_cond2,3.0.4,59.99020669877912,
with,&&&&,left,neutral,,,,,,0,141,141,38,,,,,,,,,,,,,,,,,,,,,,,LDT,left,0.2336439755745232,1,,,left,1,0.2336439755745232,,,,,,,,,,,,,,,,,,,,1080,2019_Mar_15_1438,mf_amp_cond2,3.0.4,59.99020669877912,
ablow,&&&&&,right,nonword,,,,,,0,142,142,141,,,,,,,,,,,,,,,,,,,,,,,LDT,left,0.00025657891819719225,0,,,left,0,0.00025657891819719225,,,,,,,,,,,,,,,,,,,,1080,2019_Mar_15_1438,mf_amp_cond2,3.0.4,59.99020669877912,
thabbily,&&&&&&&&,right,nonword,,,,,,0,143,143,191,,,,,,,,,,,,,,,,,,,,,,,LDT,left,0.0002495230146450922,0,,,left,0,0.0002495230146450922,,,,,,,,,,,,,,,,,,,,1080,2019_Mar_15_1438,mf_amp_cond2,3.0.4,59.99020669877912,
elduringly,&&&&&&&&&&,right,nonword,,,,,,0,144,144,4,,,,,,,,,,,,,,,,,,,,,,,LDT,right,0.9004736767674331,1,,,right,1,0.9004736767674331,,,,,,,,,,,,,,,,,,,,1080,2019_Mar_15_1438,mf_amp_cond2,3.0.4,59.99020669877912,
godlaness,&&&&&&&&&,right,nonword,,,,,,0,145,145,196,,,,,,,,,,,,,,,,,,,,,,,LDT,right,0.483706757237087,1,,,right,1,0.483706757237087,,,,,,,,,,,,,,,,,,,,1080,2019_Mar_15_1438,mf_amp_cond2,3.0.4,59.99020669877912,
halaise,&&&&&&&,None,nonword,,,,,,0,146,146,131,,,,,,,,,,,,,,,,,,,,,,,LDT,right,0.7837767712044297,0,,,right,0,0.7837767712044297,,,,,,,,,,,,,,,,,,,,1080,2019_Mar_15_1438,mf_amp_cond2,3.0.4,59.99020669877912,
hasks,&&&&&,right,nonword,,,,,,0,147,147,81,,,,,,,,,,,,,,,,,,,,,,,LDT,right,1.1505457594030304,1,,,right,1,1.1505457594030304,,,,,,,,,,,,,,,,,,,,1080,2019_Mar_15_1438,mf_amp_cond2,3.0.4,59.99020669877912,
chreams,&&&&&&&,right,nonword,,,,,,0,148,148,147,,,,,,,,,,,,,,,,,,,,,,,LDT,left,0.38367978436872363,0,,,left,0,0.38367978436872363,,,,,,,,,,,,,,,,,,,,1080,2019_Mar_15_1438,mf_amp_cond2,3.0.4,59.99020669877912,
bruthfulness,&&&&&&&&&&&&,right,nonword,,,,,,0,149,149,176,,,,,,,,,,,,,,,,,,,,,,,LDT,right,0.5170424532261677,1,,,right,1,0.5170424532261677,,,,,,,,,,,,,,,,,,,,1080,2019_Mar_15_1438,mf_amp_cond2,3.0.4,59.99020669877912,
papert,&&&&&&,right,nonword,,,,,,0,150,150,64,,,,,,,,,,,,,,,,,,,,,,,LDT,right,1.0338754739204887,1,,,right,1,1.0338754739204887,,,,,,,,,,,,,,,,,,,,1080,2019_Mar_15_1438,mf_amp_cond2,3.0.4,59.99020669877912,
refuejing,&&&&&&&&&,right,nonword,,,,,,0,151,151,54,,,,,,,,,,,,,,,,,,,,,,,LDT,left,0.717095116051496,0,,,left,0,0.717095116051496,,,,,,,,,,,,,,,,,,,,1080,2019_Mar_15_1438,mf_amp_cond2,3.0.4,59.99020669877912,
elsewhere,&&&&&&&&&,left,neutral,,,,,,0,152,152,55,,,,,,,,,,,,,,,,,,,,,,,LDT,right,0.46703939032158814,0,,,right,0,0.46703939032158814,,,,,,,,,,,,,,,,,,,,1080,2019_Mar_15_1438,mf_amp_cond2,3.0.4,59.99020669877912,
eight,&&&&&,left,neutral,,,,,,0,153,153,13,,,,,,,,,,,,,,,,,,,,,,,LDT,right,0.6837600614962867,0,,,right,0,0.6837600614962867,,,,,,,,,,,,,,,,,,,,1080,2019_Mar_15_1438,mf_amp_cond2,3.0.4,59.99020669877912,
focomotive,&&&&&&&&&&,right,nonword,,,,,,0,154,154,122,,,,,,,,,,,,,,,,,,,,,,,LDT,right,0.6170626908860868,1,,,right,1,0.6170626908860868,,,,,,,,,,,,,,,,,,,,1080,2019_Mar_15_1438,mf_amp_cond2,3.0.4,59.99020669877912,
Cunday,&&&&&&,None,nonword,,,,,,0,155,155,85,,,,,,,,,,,,,,,,,,,,,,,LDT,right,2.334076343133347,0,,,right,0,2.334076343133347,,,,,,,,,,,,,,,,,,,,1080,2019_Mar_15_1438,mf_amp_cond2,3.0.4,59.99020669877912,
towards,&&&&&&&,left,neutral,,,,,,0,156,156,104,,,,,,,,,,,,,,,,,,,,,,,LDT,right,0.5337248941505095,0,,,right,0,0.5337248941505095,,,,,,,,,,,,,,,,,,,,1080,2019_Mar_15_1438,mf_amp_cond2,3.0.4,59.99020669877912,
support,&&&&&&&,left,loyalty.virtue,,,,,,0,157,157,50,,,,,,,,,,,,,,,,,,,,,,,LDT,right,0.41702798860205803,0,,,right,0,0.41702798860205803,,,,,,,,,,,,,,,,,,,,1080,2019_Mar_15_1438,mf_amp_cond2,3.0.4,59.99020669877912,
coom,&&&&,right,nonword,,,,,,0,158,158,33,,,,,,,,,,,,,,,,,,,,,,,LDT,right,0.5003693132894114,1,,,right,1,0.5003693132894114,,,,,,,,,,,,,,,,,,,,1080,2019_Mar_15_1438,mf_amp_cond2,3.0.4,59.99020669877912,
tabin,&&&&&,right,nonword,,,,,,0,159,159,143,,,,,,,,,,,,,,,,,,,,,,,LDT,left,0.40033688812400214,0,,,left,0,0.40033688812400214,,,,,,,,,,,,,,,,,,,,1080,2019_Mar_15_1438,mf_amp_cond2,3.0.4,59.99020669877912,
safety,&&&&&&,left,care.virtue,,,,,,0,160,160,179,,,,,,,,,,,,,,,,,,,,,,,LDT,right,0.7170957574999193,0,,,right,0,0.7170957574999193,,,,,,,,,,,,,,,,,,,,1080,2019_Mar_15_1438,mf_amp_cond2,3.0.4,59.99020669877912,
thru,&&&&,left,neutral,,,,,,0,161,161,53,,,,,,,,,,,,,,,,,,,,,,,LDT,right,0.5670625144994119,0,,,right,0,0.5670625144994119,,,,,,,,,,,,,,,,,,,,1080,2019_Mar_15_1438,mf_amp_cond2,3.0.4,59.99020669877912,
tenuflect,&&&&&&&&&,right,nonword,,,,,,0,162,162,10,,,,,,,,,,,,,,,,,,,,,,,LDT,left,0.4003647910867585,0,,,left,0,0.4003647910867585,,,,,,,,,,,,,,,,,,,,1080,2019_Mar_15_1438,mf_amp_cond2,3.0.4,59.99020669877912,
Lacedonia,&&&&&&&&&,right,nonword,,,,,,0,163,163,127,,,,,,,,,,,,,,,,,,,,,,,LDT,right,0.3336699862702517,1,,,right,1,0.3336699862702517,,,,,,,,,,,,,,,,,,,,1080,2019_Mar_15_1438,mf_amp_cond2,3.0.4,59.99020669877912,
fornicalion,&&&&&&&&&&&,right,nonword,,,,,,0,164,164,23,,,,,,,,,,,,,,,,,,,,,,,LDT,right,0.9171583627467044,1,,,right,1,0.9171583627467044,,,,,,,,,,,,,,,,,,,,1080,2019_Mar_15_1438,mf_amp_cond2,3.0.4,59.99020669877912,
black,&&&&&,left,loyalty.vice,,,,,,0,165,165,68,,,,,,,,,,,,,,,,,,,,,,,LDT,left,0.7837812613433925,1,,,left,1,0.7837812613433925,,,,,,,,,,,,,,,,,,,,1080,2019_Mar_15_1438,mf_amp_cond2,3.0.4,59.99020669877912,
smapper,&&&&&&&,right,nonword,,,,,,0,166,166,198,,,,,,,,,,,,,,,,,,,,,,,LDT,right,0.40035356575390324,1,,,right,1,0.40035356575390324,,,,,,,,,,,,,,,,,,,,1080,2019_Mar_15_1438,mf_amp_cond2,3.0.4,59.99020669877912,
totalestic,&&&&&&&&&&,None,nonword,,,,,,0,167,167,109,,,,,,,,,,,,,,,,,,,,,,,LDT,right,0.3835527777991956,0,,,right,0,0.3835527777991956,,,,,,,,,,,,,,,,,,,,1080,2019_Mar_15_1438,mf_amp_cond2,3.0.4,59.99020669877912,
counpy's,&&&&&&&&,right,nonword,,,,,,0,168,168,152,,,,,,,,,,,,,,,,,,,,,,,LDT,right,0.38367208700219635,1,,,right,1,0.38367208700219635,,,,,,,,,,,,,,,,,,,,1080,2019_Mar_15_1438,mf_amp_cond2,3.0.4,59.99020669877912,
pumber,&&&&&&,None,nonword,,,,,,0,169,169,193,,,,,,,,,,,,,,,,,,,,,,,LDT,left,0.2503135875595035,0,,,left,0,0.2503135875595035,,,,,,,,,,,,,,,,,,,,1080,2019_Mar_15_1438,mf_amp_cond2,3.0.4,59.99020669877912,
couldnt,&&&&&&&,left,neutral,,,,,,0,170,170,182,,,,,,,,,,,,,,,,,,,,,,,LDT,left,0.3003160090156598,1,,,left,1,0.3003160090156598,,,,,,,,,,,,,,,,,,,,1080,2019_Mar_15_1438,mf_amp_cond2,3.0.4,59.99020669877912,
else,&&&&,left,neutral,,,,,,0,171,171,180,,,,,,,,,,,,,,,,,,,,,,,LDT,right,0.8838229874818353,0,,,right,0,0.8838229874818353,,,,,,,,,,,,,,,,,,,,1080,2019_Mar_15_1438,mf_amp_cond2,3.0.4,59.99020669877912,
baladroit,&&&&&&&&&,right,nonword,,,,,,0,172,172,70,,,,,,,,,,,,,,,,,,,,,,,LDT,left,0.767107479943661,0,,,left,0,0.767107479943661,,,,,,,,,,,,,,,,,,,,1080,2019_Mar_15_1438,mf_amp_cond2,3.0.4,59.99020669877912,
pulge,&&&&&,right,nonword,,,,,,0,173,173,66,,,,,,,,,,,,,,,,,,,,,,,LDT,right,1.6006573552003829,1,,,right,1,1.6006573552003829,,,,,,,,,,,,,,,,,,,,1080,2019_Mar_15_1438,mf_amp_cond2,3.0.4,59.99020669877912,
actively,&&&&&&&&,left,authority.virtue,,,,,,0,174,174,142,,,,,,,,,,,,,,,,,,,,,,,LDT,right,0.667065112356795,0,,,right,0,0.667065112356795,,,,,,,,,,,,,,,,,,,,1080,2019_Mar_15_1438,mf_amp_cond2,3.0.4,59.99020669877912,
openet,&&&&&&,None,nonword,,,,,,0,175,175,9,,,,,,,,,,,,,,,,,,,,,,,LDT,right,0.300323706396739,0,,,right,0,0.300323706396739,,,,,,,,,,,,,,,,,,,,1080,2019_Mar_15_1438,mf_amp_cond2,3.0.4,59.99020669877912,
myself,&&&&&&,left,neutral,,,,,,0,176,176,140,,,,,,,,,,,,,,,,,,,,,,,LDT,right,0.35033959824068006,0,,,right,0,0.35033959824068006,,,,,,,,,,,,,,,,,,,,1080,2019_Mar_15_1438,mf_amp_cond2,3.0.4,59.99020669877912,
riot,&&&&,left,authority.vice,,,,,,0,177,177,115,,,,,,,,,,,,,,,,,,,,,,,LDT,right,0.5337062921898905,0,,,right,0,0.5337062921898905,,,,,,,,,,,,,,,,,,,,1080,2019_Mar_15_1438,mf_amp_cond2,3.0.4,59.99020669877912,
free,&&&&,left,fairness.virtue,,,,,,0,178,178,177,,,,,,,,,,,,,,,,,,,,,,,LDT,left,0.45036304314271547,1,,,left,1,0.45036304314271547,,,,,,,,,,,,,,,,,,,,1080,2019_Mar_15_1438,mf_amp_cond2,3.0.4,59.99020669877912,
mih,&&&,right,nonword,,,,,,0,179,179,145,,,,,,,,,,,,,,,,,,,,,,,LDT,left,0.4670515778270783,0,,,left,0,0.4670515778270783,,,,,,,,,,,,,,,,,,,,1080,2019_Mar_15_1438,mf_amp_cond2,3.0.4,59.99020669877912,
least,&&&&&,left,neutral,,,,,,0,180,180,194,,,,,,,,,,,,,,,,,,,,,,,LDT,left,0.0669100103987148,1,,,left,1,0.0669100103987148,,,,,,,,,,,,,,,,,,,,1080,2019_Mar_15_1438,mf_amp_cond2,3.0.4,59.99020669877912,
suggists,&&&&&&&&,right,nonword,,,,,,0,181,181,45,,,,,,,,,,,,,,,,,,,,,,,LDT,left,0.03358618116180878,0,,,left,0,0.03358618116180878,,,,,,,,,,,,,,,,,,,,1080,2019_Mar_15_1438,mf_amp_cond2,3.0.4,59.99020669877912,
violence,&&&&&&&&,left,care.vice,,,,,,0,182,182,16,,,,,,,,,,,,,,,,,,,,,,,LDT,right,0.35034152258594986,0,,,right,0,0.35034152258594986,,,,,,,,,,,,,,,,,,,,1080,2019_Mar_15_1438,mf_amp_cond2,3.0.4,59.99020669877912,
framatic,&&&&&&&&,right,nonword,,,,,,0,183,183,98,,,,,,,,,,,,,,,,,,,,,,,LDT,right,0.06695587387366686,1,,,right,1,0.06695587387366686,,,,,,,,,,,,,,,,,,,,1080,2019_Mar_15_1438,mf_amp_cond2,3.0.4,59.99020669877912,
epigrach,&&&&&&&&,right,nonword,,,,,,0,184,184,139,,,,,,,,,,,,,,,,,,,,,,,LDT,right,0.06692797092546243,1,,,right,1,0.06692797092546243,,,,,,,,,,,,,,,,,,,,1080,2019_Mar_15_1438,mf_amp_cond2,3.0.4,59.99020669877912,
somehow,&&&&&&&,left,neutral,,,,,,0,185,185,96,,,,,,,,,,,,,,,,,,,,,,,LDT,right,0.633754432798014,0,,,right,0,0.633754432798014,,,,,,,,,,,,,,,,,,,,1080,2019_Mar_15_1438,mf_amp_cond2,3.0.4,59.99020669877912,
slavery,&&&&&&&,left,loyalty.vice,,,,,,0,186,186,24,,,,,,,,,,,,,,,,,,,,,,,LDT,right,0.7504455653397599,0,,,right,0,0.7504455653397599,,,,,,,,,,,,,,,,,,,,1080,2019_Mar_15_1438,mf_amp_cond2,3.0.4,59.99020669877912,
forty,&&&&&,left,neutral,,,,,,0,187,187,136,,,,,,,,,,,,,,,,,,,,,,,LDT,right,0.46703650380368344,0,,,right,0,0.46703650380368344,,,,,,,,,,,,,,,,,,,,1080,2019_Mar_15_1438,mf_amp_cond2,3.0.4,59.99020669877912,
died,&&&&,left,care.vice,,,,,,0,188,188,29,,,,,,,,,,,,,,,,,,,,,,,LDT,right,0.40033688812400214,0,,,right,0,0.40033688812400214,,,,,,,,,,,,,,,,,,,,1080,2019_Mar_15_1438,mf_amp_cond2,3.0.4,59.99020669877912,
violations,&&&&&&&&&&,left,sanctity.vice,,,,,,0,189,189,75,,,,,,,,,,,,,,,,,,,,,,,LDT,right,0.5337204040115466,0,,,right,0,0.5337204040115466,,,,,,,,,,,,,,,,,,,,1080,2019_Mar_15_1438,mf_amp_cond2,3.0.4,59.99020669877912,
itself,&&&&&&,left,neutral,,,,,,0,190,190,52,,,,,,,,,,,,,,,,,,,,,,,LDT,right,0.550388091665809,0,,,right,0,0.550388091665809,,,,,,,,,,,,,,,,,,,,1080,2019_Mar_15_1438,mf_amp_cond2,3.0.4,59.99020669877912,
gationwide,&&&&&&&&&&,right,nonword,,,,,,0,191,191,37,,,,,,,,,,,,,,,,,,,,,,,LDT,left,0.26699282124172896,0,,,left,0,0.26699282124172896,,,,,,,,,,,,,,,,,,,,1080,2019_Mar_15_1438,mf_amp_cond2,3.0.4,59.99020669877912,
squets,&&&&&&,right,nonword,,,,,,0,192,192,126,,,,,,,,,,,,,,,,,,,,,,,LDT,right,0.46703650380368344,1,,,right,1,0.46703650380368344,,,,,,,,,,,,,,,,,,,,1080,2019_Mar_15_1438,mf_amp_cond2,3.0.4,59.99020669877912,
chonograph,&&&&&&&&&&,right,nonword,,,,,,0,193,193,11,,,,,,,,,,,,,,,,,,,,,,,LDT,left,1.033849816012662,0,,,left,0,1.033849816012662,,,,,,,,,,,,,,,,,,,,1080,2019_Mar_15_1438,mf_amp_cond2,3.0.4,59.99020669877912,
clamorek,&&&&&&&&,right,nonword,,,,,,0,194,194,103,,,,,,,,,,,,,,,,,,,,,,,LDT,left,0.600426113451249,0,,,left,0,0.600426113451249,,,,,,,,,,,,,,,,,,,,1080,2019_Mar_15_1438,mf_amp_cond2,3.0.4,59.99020669877912,
front,&&&&&,left,neutral,,,,,,0,195,195,154,,,,,,,,,,,,,,,,,,,,,,,LDT,left,0.6837853986653499,1,,,left,1,0.6837853986653499,,,,,,,,,,,,,,,,,,,,1080,2019_Mar_15_1438,mf_amp_cond2,3.0.4,59.99020669877912,
fonderland,&&&&&&&&&&,right,nonword,,,,,,0,196,196,18,,,,,,,,,,,,,,,,,,,,,,,LDT,right,1.417141845493461,1,,,right,1,1.417141845493461,,,,,,,,,,,,,,,,,,,,1080,2019_Mar_15_1438,mf_amp_cond2,3.0.4,59.99020669877912,
wonderfujnoss,&&&&&&&&&&&&&,right,nonword,,,,,,0,197,197,72,,,,,,,,,,,,,,,,,,,,,,,LDT,right,0.750466733094072,1,,,right,1,0.750466733094072,,,,,,,,,,,,,,,,,,,,1080,2019_Mar_15_1438,mf_amp_cond2,3.0.4,59.99020669877912,
noone,&&&&&,left,neutral,,,,,,0,198,198,159,,,,,,,,,,,,,,,,,,,,,,,LDT,left,0.41701836689026095,1,,,left,1,0.41701836689026095,,,,,,,,,,,,,,,,,,,,1080,2019_Mar_15_1438,mf_amp_cond2,3.0.4,59.99020669877912,
been,&&&&,left,neutral,,,,,,0,199,199,58,,,,,,,,,,,,,,,,,,,,,,,LDT,right,0.3170045436854707,0,,,right,0,0.3170045436854707,,,,,,,,,,,,,,,,,,,,1080,2019_Mar_15_1438,mf_amp_cond2,3.0.4,59.99020669877912,
,,,,,,,,,,,,,,,,,,,,,,,,,,,,,,,,,,,,,,,,,,,,6,9.955,,,,,,,,,,,,,,,,,,1080,2019_Mar_15_1438,mf_amp_cond2,3.0.4,59.99020669877912,
,,,,,,,,,,,,,,,,,,,,,,,,,,,,,,,,,,,,,,,,,,,,,,right,3.534531514145783,,,,,,,,,,,,,,,,1080,2019_Mar_15_1438,mf_amp_cond2,3.0.4,59.99020669877912,
keyboard,&&&&,,,senk,,,,,,,,,0,0,0,2,,,,,,,,,,,,,,,,,,,AMP_prac,right,2.650927901646355,,,,,,,,,,,right,2.650927901646355,,,,,,,,,,,,,,1080,2019_Mar_15_1438,mf_amp_cond2,3.0.4,59.99020669877912,
scarf,&&&&&&&&,,,bisebell,,,,,,,,,0,1,1,3,,,,,,,,,,,,,,,,,,,AMP_prac,right,2.9676742627925705,,,,,,,,,,,right,2.9676742627925705,,,,,,,,,,,,,,1080,2019_Mar_15_1438,mf_amp_cond2,3.0.4,59.99020669877912,
banana,&&&&&&,,,kacket,,,,,,,,,0,2,2,1,,,,,,,,,,,,,,,,,,,AMP_prac,right,1.9007328214793233,,,,,,,,,,,right,1.9007328214793233,,,,,,,,,,,,,,1080,2019_Mar_15_1438,mf_amp_cond2,3.0.4,59.99020669877912,
car,&&&&&&&&,,,cemtuper,,,,,,,,,0,3,3,0,,,,,,,,,,,,,,,,,,,AMP_prac,right,1.017129529704107,,,,,,,,,,,right,1.017129529704107,,,,,,,,,,,,,,1080,2019_Mar_15_1438,mf_amp_cond2,3.0.4,59.99020669877912,
,,,,,,,,,,,,,,,,,,,,,,,,,,,,,,,,,,,,,,,,,,,,,,,,,,right,0.6337547535222257,,,,,,,,,,,,1080,2019_Mar_15_1438,mf_amp_cond2,3.0.4,59.99020669877912,
terrorist,&&&&&&&&,right,loyalty.vice,perified,,,,,,,,,,,,,0,0,0,183,,,,,,,,,,,,,,,AMP,left,2.7176114811445586,0,,,,,,,,,,,,,,left,0,2.7176114811445586,,,,,,,,,1080,2019_Mar_15_1438,mf_amp_cond2,3.0.4,59.99020669877912,
failure,&&&&&&&&&&&,right,loyalty.vice,cromiscuity,,,,,,,,,,,,,0,1,1,111,,,,,,,,,,,,,,,AMP,left,1.067185191292083,0,,,,,,,,,,,,,,left,0,1.067185191292083,,,,,,,,,1080,2019_Mar_15_1438,mf_amp_cond2,3.0.4,59.99020669877912,
forced,&&&&&&&&,right,fairness.vice,dormandi,,,,,,,,,,,,,0,2,2,203,,,,,,,,,,,,,,,AMP,right,1.000421751610702,1,,,,,,,,,,,,,,right,1,1.000421751610702,,,,,,,,,1080,2019_Mar_15_1438,mf_amp_cond2,3.0.4,59.99020669877912,
terrorists,&&&&&&&&&,right,fairness.vice,ittutable,,,,,,,,,,,,,0,3,3,232,,,,,,,,,,,,,,,AMP,right,0.567033328639809,1,,,,,,,,,,,,,,right,1,0.567033328639809,,,,,,,,,1080,2019_Mar_15_1438,mf_amp_cond2,3.0.4,59.99020669877912,
juck,&&&&&&&&&&,None,nonword,imebreaker,,,,,,,,,,,,,0,4,4,233,,,,,,,,,,,,,,,AMP,right,0.8004508733138209,0,,,,,,,,,,,,,,right,0,0.8004508733138209,,,,,,,,,1080,2019_Mar_15_1438,mf_amp_cond2,3.0.4,59.99020669877912,
friends,&&&&&,left,loyalty.virtue,aubos,,,,,,,,,,,,,0,5,5,134,,,,,,,,,,,,,,,AMP,left,0.8838101585279219,1,,,,,,,,,,,,,,left,1,0.8838101585279219,,,,,,,,,1080,2019_Mar_15_1438,mf_amp_cond2,3.0.4,59.99020669877912,
gowlands,&&&&&&&&,None,nonword,drumbled,,,,,,,,,,,,,0,6,6,117,,,,,,,,,,,,,,,AMP,right,0.21695512016594876,0,,,,,,,,,,,,,,right,0,0.21695512016594876,,,,,,,,,1080,2019_Mar_15_1438,mf_amp_cond2,3.0.4,59.99020669877912,
safe,&&&&&&&&,left,care.virtue,crinking,,,,,,,,,,,,,0,7,7,274,,,,,,,,,,,,,,,AMP,right,0.1335066737665329,0,,,,,,,,,,,,,,right,0,0.1335066737665329,,,,,,,,,1080,2019_Mar_15_1438,mf_amp_cond2,3.0.4,59.99020669877912,
fostet,&&&&&&&&,None,nonword,bluently,,,,,,,,,,,,,0,8,8,287,,,,,,,,,,,,,,,AMP,left,1.0838586519530509,0,,,,,,,,,,,,,,left,0,1.0838586519530509,,,,,,,,,1080,2019_Mar_15_1438,mf_amp_cond2,3.0.4,59.99020669877912,
abuse,&&&&&&&&&&,right,sanctity.vice,simplustic,,,,,,,,,,,,,0,9,9,169,,,,,,,,,,,,,,,AMP,right,0.7504298498679418,1,,,,,,,,,,,,,,right,1,0.7504298498679418,,,,,,,,,1080,2019_Mar_15_1438,mf_amp_cond2,3.0.4,59.99020669877912,
failure,&&&&&&&&&,right,loyalty.vice,gillipede,,,,,,,,,,,,,0,10,10,29,,,,,,,,,,,,,,,AMP,left,0.43368509234278463,0,,,,,,,,,,,,,,left,0,0.43368509234278463,,,,,,,,,1080,2019_Mar_15_1438,mf_amp_cond2,3.0.4,59.99020669877912,
harassment,&&&&&&&&&&&,right,sanctity.vice,sowntrodden,,,,,,,,,,,,,0,11,11,128,,,,,,,,,,,,,,,AMP,right,0.5336043020506622,1,,,,,,,,,,,,,,right,1,0.5336043020506622,,,,,,,,,1080,2019_Mar_15_1438,mf_amp_cond2,3.0.4,59.99020669877912,
blamed,&&&&&&&&&&&&,right,loyalty.vice,nonobservalt,,,,,,,,,,,,,0,12,12,291,,,,,,,,,,,,,,,AMP,left,1.483964298327919,0,,,,,,,,,,,,,,left,0,1.483964298327919,,,,,,,,,1080,2019_Mar_15_1438,mf_amp_cond2,3.0.4,59.99020669877912,
freedom,&&&&&&,left,sanctity.virtue,letish,,,,,,,,,,,,,0,13,13,18,,,,,,,,,,,,,,,AMP,right,0.9338116178259952,0,,,,,,,,,,,,,,right,0,0.9338116178259952,,,,,,,,,1080,2019_Mar_15_1438,mf_amp_cond2,3.0.4,59.99020669877912,
forepo,&&&&&&&,None,nonword,hatigue,,,,,,,,,,,,,0,14,14,51,,,,,,,,,,,,,,,AMP,right,1.1172078183444683,0,,,,,,,,,,,,,,right,0,1.1172078183444683,,,,,,,,,1080,2019_Mar_15_1438,mf_amp_cond2,3.0.4,59.99020669877912,
unpleasant,&&&&&&&&&&,None,control,honstables,,,,,,,,,,,,,0,15,15,25,,,,,,,,,,,,,,,AMP,right,0.8004726825165562,0,,,,,,,,,,,,,,right,0,0.8004726825165562,,,,,,,,,1080,2019_Mar_15_1438,mf_amp_cond2,3.0.4,59.99020669877912,
fostet,&&&&,None,nonword,tove,,,,,,,,,,,,,0,16,16,133,,,,,,,,,,,,,,,AMP,right,1.0005009703454562,0,,,,,,,,,,,,,,right,0,1.0005009703454562,,,,,,,,,1080,2019_Mar_15_1438,mf_amp_cond2,3.0.4,59.99020669877912,
good,&&&&&&&&,left,care.virtue,lachelor,,,,,,,,,,,,,0,17,17,289,,,,,,,,,,,,,,,AMP,right,0.8838024611613946,0,,,,,,,,,,,,,,right,0,0.8838024611613946,,,,,,,,,1080,2019_Mar_15_1438,mf_amp_cond2,3.0.4,59.99020669877912,
powerful,&&&&&&&&&&,left,authority.virtue,abointment,,,,,,,,,,,,,0,18,18,256,,,,,,,,,,,,,,,AMP,right,0.8004556841769954,0,,,,,,,,,,,,,,right,0,0.8004556841769954,,,,,,,,,1080,2019_Mar_15_1438,mf_amp_cond2,3.0.4,59.99020669877912,
fair,&&&&&&&&&&&,left,fairness.virtue,ilportation,,,,,,,,,,,,,0,19,19,4,,,,,,,,,,,,,,,AMP,left,0.7504362643521745,1,,,,,,,,,,,,,,left,1,0.7504362643521745,,,,,,,,,1080,2019_Mar_15_1438,mf_amp_cond2,3.0.4,59.99020669877912,
corruption,&&&&&&&&&,right,sanctity.vice,ittutable,,,,,,,,,,,,,0,20,20,146,,,,,,,,,,,,,,,AMP,right,0.6170617287280038,1,,,,,,,,,,,,,,right,1,0.6170617287280038,,,,,,,,,1080,2019_Mar_15_1438,mf_amp_cond2,3.0.4,59.99020669877912,
party,&&&&&&&&&,left,loyalty.virtue,ittutable,,,,,,,,,,,,,0,21,21,286,,,,,,,,,,,,,,,AMP,right,0.5169914581638295,0,,,,,,,,,,,,,,right,0,0.5169914581638295,,,,,,,,,1080,2019_Mar_15_1438,mf_amp_cond2,3.0.4,59.99020669877912,
freedom,&&&&&&&&,left,sanctity.virtue,sliptery,,,,,,,,,,,,,0,22,22,185,,,,,,,,,,,,,,,AMP,left,1.3339018694678089,1,,,,,,,,,,,,,,left,1,1.3339018694678089,,,,,,,,,1080,2019_Mar_15_1438,mf_amp_cond2,3.0.4,59.99020669877912,
intelligence,&&&&&&&&&,left,loyalty.virtue,neputized,,,,,,,,,,,,,0,23,23,304,,,,,,,,,,,,,,,AMP,right,0.7504378679732326,0,,,,,,,,,,,,,,right,0,0.7504378679732326,,,,,,,,,1080,2019_Mar_15_1438,mf_amp_cond2,3.0.4,59.99020669877912,
failure,&&&&&&&&,right,loyalty.vice,lachelor,,,,,,,,,,,,,0,24,24,200,,,,,,,,,,,,,,,AMP,right,0.6170630116248503,1,,,,,,,,,,,,,,right,1,0.6170630116248503,,,,,,,,,1080,2019_Mar_15_1438,mf_amp_cond2,3.0.4,59.99020669877912,
festate,&&&&&&&&&,None,nonword,disregord,,,,,,,,,,,,,0,25,25,41,,,,,,,,,,,,,,,AMP,left,1.1502962364174891,0,,,,,,,,,,,,,,left,0,1.1502962364174891,,,,,,,,,1080,2019_Mar_15_1438,mf_amp_cond2,3.0.4,59.99020669877912,
opportunity,&&&&&&&&&&&,left,fairness.virtue,vicissifude,,,,,,,,,,,,,0,26,26,14,,,,,,,,,,,,,,,AMP,left,0.833796832463122,1,,,,,,,,,,,,,,left,1,0.833796832463122,,,,,,,,,1080,2019_Mar_15_1438,mf_amp_cond2,3.0.4,59.99020669877912,
injured,&&&&&&&&&&,right,care.vice,clattening,,,,,,,,,,,,,0,27,27,178,,,,,,,,,,,,,,,AMP,right,0.6504105743806576,1,,,,,,,,,,,,,,right,1,0.6504105743806576,,,,,,,,,1080,2019_Mar_15_1438,mf_amp_cond2,3.0.4,59.99020669877912,
pleasant,&&&&&&&&&&&,None,control,egpeditious,,,,,,,,,,,,,0,28,28,220,,,,,,,,,,,,,,,AMP,right,1.3672754108556546,0,,,,,,,,,,,,,,right,0,1.3672754108556546,,,,,,,,,1080,2019_Mar_15_1438,mf_amp_cond2,3.0.4,59.99020669877912,
accused,&&&&&&&&,right,fairness.vice,hescribe,,,,,,,,,,,,,0,29,29,244,,,,,,,,,,,,,,,AMP,right,0.9338119385502068,1,,,,,,,,,,,,,,right,1,0.9338119385502068,,,,,,,,,1080,2019_Mar_15_1438,mf_amp_cond2,3.0.4,59.99020669877912,
refused,&&&&&&&&&&,right,authority.vice,clattening,,,,,,,,,,,,,0,30,30,314,,,,,,,,,,,,,,,AMP,right,1.0171606398944277,1,,,,,,,,,,,,,,right,1,1.0171606398944277,,,,,,,,,1080,2019_Mar_15_1438,mf_amp_cond2,3.0.4,59.99020669877912,
victim,&&&&&&&&&&&,right,care.vice,ilportation,,,,,,,,,,,,,0,31,31,236,,,,,,,,,,,,,,,AMP,left,0.8171204852988012,0,,,,,,,,,,,,,,left,0,0.8171204852988012,,,,,,,,,1080,2019_Mar_15_1438,mf_amp_cond2,3.0.4,59.99020669877912,
civilians,&&&&&&&&&&,right,care.vice,galamitous,,,,,,,,,,,,,0,32,32,59,,,,,,,,,,,,,,,AMP,left,0.8671299626876134,0,,,,,,,,,,,,,,left,0,0.8671299626876134,,,,,,,,,1080,2019_Mar_15_1438,mf_amp_cond2,3.0.4,59.99020669877912,
restore,&&&&&&,left,care.virtue,erdest,,,,,,,,,,,,,0,33,33,326,,,,,,,,,,,,,,,AMP,right,1.000479802591144,0,,,,,,,,,,,,,,right,0,1.000479802591144,,,,,,,,,1080,2019_Mar_15_1438,mf_amp_cond2,3.0.4,59.99020669877912,
menizen,&&&&&&&&&&,None,nonword,simplustic,,,,,,,,,,,,,0,34,34,23,,,,,,,,,,,,,,,AMP,right,0.4337184476025868,0,,,,,,,,,,,,,,right,0,0.4337184476025868,,,,,,,,,1080,2019_Mar_15_1438,mf_amp_cond2,3.0.4,59.99020669877912,
forepo,&&&&&&&&&&&,None,nonword,egpeditious,,,,,,,,,,,,,0,35,35,288,,,,,,,,,,,,,,,AMP,right,0.6337470561702503,0,,,,,,,,,,,,,,right,0,0.6337470561702503,,,,,,,,,1080,2019_Mar_15_1438,mf_amp_cond2,3.0.4,59.99020669877912,
war,&&&&&&&&,right,sanctity.vice,emassion,,,,,,,,,,,,,0,36,36,166,,,,,,,,,,,,,,,AMP,right,0.41704498694161884,1,,,,,,,,,,,,,,right,1,0.41704498694161884,,,,,,,,,1080,2019_Mar_15_1438,mf_amp_cond2,3.0.4,59.99020669877912,
useful,&&&&&&&&&&&&,left,authority.virtue,quarterbocks,,,,,,,,,,,,,0,37,37,47,,,,,,,,,,,,,,,AMP,left,0.6337310199742205,1,,,,,,,,,,,,,,left,1,0.6337310199742205,,,,,,,,,1080,2019_Mar_15_1438,mf_amp_cond2,3.0.4,59.99020669877912,
hate,&&&&&,right,fairness.vice,touls,,,,,,,,,,,,,0,38,38,294,,,,,,,,,,,,,,,AMP,left,1.05052135232836,0,,,,,,,,,,,,,,left,0,1.05052135232836,,,,,,,,,1080,2019_Mar_15_1438,mf_amp_cond2,3.0.4,59.99020669877912,
conspiracy,&&&&&&&&,right,sanctity.vice,nuckheap,,,,,,,,,,,,,0,39,39,197,,,,,,,,,,,,,,,AMP,left,1.0671790975320619,0,,,,,,,,,,,,,,left,0,1.0671790975320619,,,,,,,,,1080,2019_Mar_15_1438,mf_amp_cond2,3.0.4,59.99020669877912,
killed,&&&&&&&&&&,right,care.vice,abointment,,,,,,,,,,,,,0,40,40,39,,,,,,,,,,,,,,,AMP,right,1.0672073212335818,1,,,,,,,,,,,,,,right,1,1.0672073212335818,,,,,,,,,1080,2019_Mar_15_1438,mf_amp_cond2,3.0.4,59.99020669877912,
improve,&&&&,left,care.virtue,tove,,,,,,,,,,,,,0,41,41,9,,,,,,,,,,,,,,,AMP,left,0.6837777012988226,1,,,,,,,,,,,,,,left,1,0.6837777012988226,,,,,,,,,1080,2019_Mar_15_1438,mf_amp_cond2,3.0.4,59.99020669877912,
peace,&&&&&&&,left,care.virtue,scalbel,,,,,,,,,,,,,0,42,42,222,,,,,,,,,,,,,,,AMP,left,0.7004200517694699,1,,,,,,,,,,,,,,left,1,0.7004200517694699,,,,,,,,,1080,2019_Mar_15_1438,mf_amp_cond2,3.0.4,59.99020669877912,
fair,&&&&&&&&&&&,left,fairness.virtue,sowntrodden,,,,,,,,,,,,,0,43,43,276,,,,,,,,,,,,,,,AMP,left,0.9170974252629094,1,,,,,,,,,,,,,,left,1,0.9170974252629094,,,,,,,,,1080,2019_Mar_15_1438,mf_amp_cond2,3.0.4,59.99020669877912,
crime,&&&&&&&&&,right,fairness.vice,gillipede,,,,,,,,,,,,,0,44,44,180,,,,,,,,,,,,,,,AMP,left,0.7504324156761868,0,,,,,,,,,,,,,,left,0,0.7504324156761868,,,,,,,,,1080,2019_Mar_15_1438,mf_amp_cond2,3.0.4,59.99020669877912,
greaks,&&&&&,None,nonword,atson,,,,,,,,,,,,,0,45,45,78,,,,,,,,,,,,,,,AMP,right,1.0005243831692496,0,,,,,,,,,,,,,,right,0,1.0005243831692496,,,,,,,,,1080,2019_Mar_15_1438,mf_amp_cond2,3.0.4,59.99020669877912,
injured,&&&&&&&&&&&&&,right,care.vice,esquisiteness,,,,,,,,,,,,,0,46,46,1,,,,,,,,,,,,,,,AMP,right,0.4337091466150014,1,,,,,,,,,,,,,,right,1,0.4337091466150014,,,,,,,,,1080,2019_Mar_15_1438,mf_amp_cond2,3.0.4,59.99020669877912,
lies,&&&&&&&,right,fairness.vice,brudent,,,,,,,,,,,,,0,47,47,298,,,,,,,,,,,,,,,AMP,left,0.5002256290899822,0,,,,,,,,,,,,,,left,0,0.5002256290899822,,,,,,,,,1080,2019_Mar_15_1438,mf_amp_cond2,3.0.4,59.99020669877912,
health,&&&&&&&,left,care.virtue,vurtain,,,,,,,,,,,,,0,48,48,313,,,,,,,,,,,,,,,AMP,left,0.6004039835097501,1,,,,,,,,,,,,,,left,1,0.6004039835097501,,,,,,,,,1080,2019_Mar_15_1438,mf_amp_cond2,3.0.4,59.99020669877912,
help,&&&&&&&&,left,care.virtue,drumbled,,,,,,,,,,,,,0,49,49,7,,,,,,,,,,,,,,,AMP,left,0.700419089596835,1,,,,,,,,,,,,,,left,1,0.700419089596835,,,,,,,,,1080,2019_Mar_15_1438,mf_amp_cond2,3.0.4,59.99020669877912,
promote,&&&,left,sanctity.virtue,asn,,,,,,,,,,,,,0,50,50,188,,,,,,,,,,,,,,,AMP,right,0.6837542884750292,0,,,,,,,,,,,,,,right,0,0.6837542884750292,,,,,,,,,1080,2019_Mar_15_1438,mf_amp_cond2,3.0.4,59.99020669877912,
clean,&&&&&&&&,left,sanctity.virtue,thadowed,,,,,,,,,,,,,0,51,51,10,,,,,,,,,,,,,,,AMP,right,1.0004977631178917,0,,,,,,,,,,,,,,right,0,1.0004977631178917,,,,,,,,,1080,2019_Mar_15_1438,mf_amp_cond2,3.0.4,59.99020669877912,
blamed,&&&&&&&&&,right,loyalty.vice,gondensed,,,,,,,,,,,,,0,52,52,116,,,,,,,,,,,,,,,AMP,right,0.8004473453620449,1,,,,,,,,,,,,,,right,1,0.8004473453620449,,,,,,,,,1080,2019_Mar_15_1438,mf_amp_cond2,3.0.4,59.99020669877912,
commitment,&&&&&&&&,left,sanctity.virtue,dormandi,,,,,,,,,,,,,0,53,53,63,,,,,,,,,,,,,,,AMP,right,0.5004215912485961,0,,,,,,,,,,,,,,right,0,0.5004215912485961,,,,,,,,,1080,2019_Mar_15_1438,mf_amp_cond2,3.0.4,59.99020669877912,
critics,&&&&&&,right,loyalty.vice,gikely,,,,,,,,,,,,,0,54,54,130,,,,,,,,,,,,,,,AMP,right,0.5003606537502492,1,,,,,,,,,,,,,,right,1,0.5003606537502492,,,,,,,,,1080,2019_Mar_15_1438,mf_amp_cond2,3.0.4,59.99020669877912,
betrayal,&&&&&&&&,right,loyalty.vice,fontacts,,,,,,,,,,,,,0,55,55,101,,,,,,,,,,,,,,,AMP,left,0.41701740471762605,0,,,,,,,,,,,,,,left,0,0.41701740471762605,,,,,,,,,1080,2019_Mar_15_1438,mf_amp_cond2,3.0.4,59.99020669877912,
death,&&&&&&&&,right,care.vice,pullness,,,,,,,,,,,,,0,56,56,254,,,,,,,,,,,,,,,AMP,left,0.7170944746030727,0,,,,,,,,,,,,,,left,0,0.7170944746030727,,,,,,,,,1080,2019_Mar_15_1438,mf_amp_cond2,3.0.4,59.99020669877912,
party,&&&&&&&&&,left,loyalty.virtue,metibolic,,,,,,,,,,,,,0,57,57,229,,,,,,,,,,,,,,,AMP,left,1.6171977155463537,1,,,,,,,,,,,,,,left,1,1.6171977155463537,,,,,,,,,1080,2019_Mar_15_1438,mf_amp_cond2,3.0.4,59.99020669877912,
juck,&&&&&&,None,nonword,erdest,,,,,,,,,,,,,0,58,58,56,,,,,,,,,,,,,,,AMP,right,0.5837119208881631,0,,,,,,,,,,,,,,right,0,0.5837119208881631,,,,,,,,,1080,2019_Mar_15_1438,mf_amp_cond2,3.0.4,59.99020669877912,
promises,&&&&&&&&&&&&,left,fairness.virtue,unreflectuve,,,,,,,,,,,,,0,59,59,106,,,,,,,,,,,,,,,AMP,right,0.68374819472956,0,,,,,,,,,,,,,,right,0,0.68374819472956,,,,,,,,,1080,2019_Mar_15_1438,mf_amp_cond2,3.0.4,59.99020669877912,
groups,&&&&&&&,right,loyalty.vice,sickyay,,,,,,,,,,,,,0,60,60,214,,,,,,,,,,,,,,,AMP,left,0.40032309701200575,0,,,,,,,,,,,,,,left,0,0.40032309701200575,,,,,,,,,1080,2019_Mar_15_1438,mf_amp_cond2,3.0.4,59.99020669877912,
civilians,&&&&&&&&&&&,right,care.vice,cromiscuity,,,,,,,,,,,,,0,61,61,212,,,,,,,,,,,,,,,AMP,left,0.7504231146740494,0,,,,,,,,,,,,,,left,0,0.7504231146740494,,,,,,,,,1080,2019_Mar_15_1438,mf_amp_cond2,3.0.4,59.99020669877912,
fostet,&&&&&&&&&,None,nonword,crilfully,,,,,,,,,,,,,0,62,62,235,,,,,,,,,,,,,,,AMP,right,0.41703023365698755,0,,,,,,,,,,,,,,right,0,0.41703023365698755,,,,,,,,,1080,2019_Mar_15_1438,mf_amp_cond2,3.0.4,59.99020669877912,
sharing,&&&&&&&&,left,loyalty.virtue,thadowed,,,,,,,,,,,,,0,63,63,104,,,,,,,,,,,,,,,AMP,left,0.6504298178042518,1,,,,,,,,,,,,,,left,1,0.6504298178042518,,,,,,,,,1080,2019_Mar_15_1438,mf_amp_cond2,3.0.4,59.99020669877912,
blamed,&&&&&&&&&&,right,loyalty.vice,Oregoniuns,,,,,,,,,,,,,0,64,64,221,,,,,,,,,,,,,,,AMP,left,0.13359840074554086,0,,,,,,,,,,,,,,left,0,0.13359840074554086,,,,,,,,,1080,2019_Mar_15_1438,mf_amp_cond2,3.0.4,59.99020669877912,
abuse,&&&&&,right,sanctity.vice,uller,,,,,,,,,,,,,0,65,65,27,,,,,,,,,,,,,,,AMP,right,0.600396927606198,1,,,,,,,,,,,,,,right,1,0.600396927606198,,,,,,,,,1080,2019_Mar_15_1438,mf_amp_cond2,3.0.4,59.99020669877912,
festate,&&&&&&&&&&&&,None,nonword,unreflectuve,,,,,,,,,,,,,0,66,66,168,,,,,,,,,,,,,,,AMP,right,0.41701836689026095,0,,,,,,,,,,,,,,right,0,0.41701836689026095,,,,,,,,,1080,2019_Mar_15_1438,mf_amp_cond2,3.0.4,59.99020669877912,
respect,&&&&&&&&&&&,left,sanctity.virtue,egpeditious,,,,,,,,,,,,,0,67,67,154,,,,,,,,,,,,,,,AMP,right,0.9003412178863073,0,,,,,,,,,,,,,,right,0,0.9003412178863073,,,,,,,,,1080,2019_Mar_15_1438,mf_amp_cond2,3.0.4,59.99020669877912,
benefit,&&&&&&&&&&&&,left,fairness.virtue,feleological,,,,,,,,,,,,,0,68,68,204,,,,,,,,,,,,,,,AMP,left,0.40033688812400214,1,,,,,,,,,,,,,,left,1,0.40033688812400214,,,,,,,,,1080,2019_Mar_15_1438,mf_amp_cond2,3.0.4,59.99020669877912,
gowlands,&&&&&&&&,None,nonword,fontacts,,,,,,,,,,,,,0,69,69,181,,,,,,,,,,,,,,,AMP,left,0.43367130123078823,0,,,,,,,,,,,,,,left,0,0.43367130123078823,,,,,,,,,1080,2019_Mar_15_1438,mf_amp_cond2,3.0.4,59.99020669877912,
victim,&&&&&&&,right,care.vice,emports,,,,,,,,,,,,,0,70,70,110,,,,,,,,,,,,,,,AMP,right,0.3003269136243034,1,,,,,,,,,,,,,,right,1,0.3003269136243034,,,,,,,,,1080,2019_Mar_15_1438,mf_amp_cond2,3.0.4,59.99020669877912,
unpleasant,&&&&&&&&,None,control,emassion,,,,,,,,,,,,,0,71,71,315,,,,,,,,,,,,,,,AMP,right,0.6670625465776538,0,,,,,,,,,,,,,,right,0,0.6670625465776538,,,,,,,,,1080,2019_Mar_15_1438,mf_amp_cond2,3.0.4,59.99020669877912,
critics,&&&&&&&&&,right,loyalty.vice,gondensed,,,,,,,,,,,,,0,72,72,226,,,,,,,,,,,,,,,AMP,left,0.7837709981831722,0,,,,,,,,,,,,,,left,0,0.7837709981831722,,,,,,,,,1080,2019_Mar_15_1438,mf_amp_cond2,3.0.4,59.99020669877912,
win,&&&&&&&&&&,left,fairness.virtue,ammessment,,,,,,,,,,,,,0,73,73,173,,,,,,,,,,,,,,,AMP,right,0.36699830561701674,0,,,,,,,,,,,,,,right,0,0.36699830561701674,,,,,,,,,1080,2019_Mar_15_1438,mf_amp_cond2,3.0.4,59.99020669877912,
lies,&&&&&&&,right,fairness.vice,brudent,,,,,,,,,,,,,0,74,74,112,,,,,,,,,,,,,,,AMP,left,0.7669525704113767,0,,,,,,,,,,,,,,left,0,0.7669525704113767,,,,,,,,,1080,2019_Mar_15_1438,mf_amp_cond2,3.0.4,59.99020669877912,
sharing,&&&&&&&&&&&&,left,loyalty.virtue,nonobservalt,,,,,,,,,,,,,0,75,75,239,,,,,,,,,,,,,,,AMP,left,0.5170706768985838,1,,,,,,,,,,,,,,left,1,0.5170706768985838,,,,,,,,,1080,2019_Mar_15_1438,mf_amp_cond2,3.0.4,59.99020669877912,
scandal,&&&&&&&&&&&,right,sanctity.vice,neneficence,,,,,,,,,,,,,0,76,76,209,,,,,,,,,,,,,,,AMP,left,0.33368730534857605,0,,,,,,,,,,,,,,left,0,0.33368730534857605,,,,,,,,,1080,2019_Mar_15_1438,mf_amp_cond2,3.0.4,59.99020669877912,
police,&&&&&&&&,right,authority.vice,ebbitter,,,,,,,,,,,,,0,77,77,309,,,,,,,,,,,,,,,AMP,right,0.36699830561701674,1,,,,,,,,,,,,,,right,1,0.36699830561701674,,,,,,,,,1080,2019_Mar_15_1438,mf_amp_cond2,3.0.4,59.99020669877912,
encourage,&&&&&,left,authority.virtue,scock,,,,,,,,,,,,,0,78,78,306,,,,,,,,,,,,,,,AMP,right,0.6337672617519274,0,,,,,,,,,,,,,,right,0,0.6337672617519274,,,,,,,,,1080,2019_Mar_15_1438,mf_amp_cond2,3.0.4,59.99020669877912,
intelligence,&&&&&&&,left,loyalty.virtue,Loorish,,,,,,,,,,,,,0,79,79,215,,,,,,,,,,,,,,,AMP,left,0.7504407544765854,1,,,,,,,,,,,,,,left,1,0.7504407544765854,,,,,,,,,1080,2019_Mar_15_1438,mf_amp_cond2,3.0.4,59.99020669877912,
protesters,&&&&&&&&&,right,authority.vice,discovars,,,,,,,,,,,,,0,80,80,6,,,,,,,,,,,,,,,AMP,left,0.7004380122962175,0,,,,,,,,,,,,,,left,0,0.7004380122962175,,,,,,,,,1080,2019_Mar_15_1438,mf_amp_cond2,3.0.4,59.99020669877912,
shot,&&&&&&&&&&&&,right,care.vice,unreflectuve,,,,,,,,,,,,,0,81,81,12,,,,,,,,,,,,,,,AMP,right,0.46688800875563174,1,,,,,,,,,,,,,,right,1,0.46688800875563174,,,,,,,,,1080,2019_Mar_15_1438,mf_amp_cond2,3.0.4,59.99020669877912,
terrorists,&&&&&&&&&&&,right,fairness.vice,vicissifude,,,,,,,,,,,,,0,82,82,92,,,,,,,,,,,,,,,AMP,left,0.483697135510738,0,,,,,,,,,,,,,,left,0,0.483697135510738,,,,,,,,,1080,2019_Mar_15_1438,mf_amp_cond2,3.0.4,59.99020669877912,
accused,&&&&&&&&&&,right,fairness.vice,Oregoniuns,,,,,,,,,,,,,0,83,83,82,,,,,,,,,,,,,,,AMP,right,0.16695654740033206,1,,,,,,,,,,,,,,right,1,0.16695654740033206,,,,,,,,,1080,2019_Mar_15_1438,mf_amp_cond2,3.0.4,59.99020669877912,
agreement,&&&&&&&&,left,fairness.virtue,emassion,,,,,,,,,,,,,0,84,84,54,,,,,,,,,,,,,,,AMP,right,0.3669957398233237,0,,,,,,,,,,,,,,right,0,0.3669957398233237,,,,,,,,,1080,2019_Mar_15_1438,mf_amp_cond2,3.0.4,59.99020669877912,
friends,&&&&&&&&,left,loyalty.virtue,hescribe,,,,,,,,,,,,,0,85,85,75,,,,,,,,,,,,,,,AMP,left,0.6003982105030445,1,,,,,,,,,,,,,,left,1,0.6003982105030445,,,,,,,,,1080,2019_Mar_15_1438,mf_amp_cond2,3.0.4,59.99020669877912,
dignity,&&&&&&&&&&&&,left,sanctity.virtue,quarterbocks,,,,,,,,,,,,,0,86,86,107,,,,,,,,,,,,,,,AMP,right,0.9171490617736708,0,,,,,,,,,,,,,,right,0,0.9171490617736708,,,,,,,,,1080,2019_Mar_15_1438,mf_amp_cond2,3.0.4,59.99020669877912,
peaceful,&&&&&&&&,left,authority.virtue,proached,,,,,,,,,,,,,0,87,87,167,,,,,,,,,,,,,,,AMP,left,0.6337319821468554,1,,,,,,,,,,,,,,left,1,0.6337319821468554,,,,,,,,,1080,2019_Mar_15_1438,mf_amp_cond2,3.0.4,59.99020669877912,
terrorist,&&&&&&&&&&,right,loyalty.vice,Oregoniuns,,,,,,,,,,,,,0,88,88,269,,,,,,,,,,,,,,,AMP,right,0.5670689289690927,1,,,,,,,,,,,,,,right,1,0.5670689289690927,,,,,,,,,1080,2019_Mar_15_1438,mf_amp_cond2,3.0.4,59.99020669877912,
clean,&&&&&&&&&&&,left,sanctity.virtue,ronviolence,,,,,,,,,,,,,0,89,89,283,,,,,,,,,,,,,,,AMP,left,0.45036015662481077,1,,,,,,,,,,,,,,left,1,0.45036015662481077,,,,,,,,,1080,2019_Mar_15_1438,mf_amp_cond2,3.0.4,59.99020669877912,
fair,&&&&&&&&&&,left,fairness.virtue,honstables,,,,,,,,,,,,,0,90,90,123,,,,,,,,,,,,,,,AMP,left,1.0171952780510765,1,,,,,,,,,,,,,,left,1,1.0171952780510765,,,,,,,,,1080,2019_Mar_15_1438,mf_amp_cond2,3.0.4,59.99020669877912,
safe,&&&&&&&&,left,care.virtue,pullness,,,,,,,,,,,,,0,91,91,162,,,,,,,,,,,,,,,AMP,left,0.7837851100193802,1,,,,,,,,,,,,,,left,1,0.7837851100193802,,,,,,,,,1080,2019_Mar_15_1438,mf_amp_cond2,3.0.4,59.99020669877912,
protect,&&&&&&&,left,fairness.virtue,troubla,,,,,,,,,,,,,0,92,92,189,,,,,,,,,,,,,,,AMP,left,0.38367433205712587,1,,,,,,,,,,,,,,left,1,0.38367433205712587,,,,,,,,,1080,2019_Mar_15_1438,mf_amp_cond2,3.0.4,59.99020669877912,
intelligence,&&&&&&&&&&&&,left,loyalty.virtue,edancipation,,,,,,,,,,,,,0,93,93,141,,,,,,,,,,,,,,,AMP,right,0.23362344926863443,0,,,,,,,,,,,,,,right,0,0.23362344926863443,,,,,,,,,1080,2019_Mar_15_1438,mf_amp_cond2,3.0.4,59.99020669877912,
terrorist,&&&&&&&,right,loyalty.vice,stindig,,,,,,,,,,,,,0,94,94,89,,,,,,,,,,,,,,,AMP,left,0.733764086588053,0,,,,,,,,,,,,,,left,0,0.733764086588053,,,,,,,,,1080,2019_Mar_15_1438,mf_amp_cond2,3.0.4,59.99020669877912,
racist,&&&&&&&,right,sanctity.vice,gedious,,,,,,,,,,,,,0,95,95,179,,,,,,,,,,,,,,,AMP,left,1.133877109590685,0,,,,,,,,,,,,,,left,0,1.133877109590685,,,,,,,,,1080,2019_Mar_15_1438,mf_amp_cond2,3.0.4,59.99020669877912,
agreement,&&&&&&&&,left,fairness.virtue,hescribe,,,,,,,,,,,,,0,96,96,281,,,,,,,,,,,,,,,AMP,right,0.6337400002375944,0,,,,,,,,,,,,,,right,0,0.6337400002375944,,,,,,,,,1080,2019_Mar_15_1438,mf_amp_cond2,3.0.4,59.99020669877912,
useful,&&&&&&&&&,left,authority.virtue,discovars,,,,,,,,,,,,,0,97,97,270,,,,,,,,,,,,,,,AMP,right,0.08359758289589081,0,,,,,,,,,,,,,,right,0,0.08359758289589081,,,,,,,,,1080,2019_Mar_15_1438,mf_amp_cond2,3.0.4,59.99020669877912,
sharing,&&&&&&&&&&&&&,left,loyalty.virtue,esquisiteness,,,,,,,,,,,,,0,98,98,324,,,,,,,,,,,,,,,AMP,right,0.6337387173407478,0,,,,,,,,,,,,,,right,0,0.6337387173407478,,,,,,,,,1080,2019_Mar_15_1438,mf_amp_cond2,3.0.4,59.99020669877912,
pleasant,&&&&&&&&,None,control,bluently,,,,,,,,,,,,,0,99,99,45,,,,,,,,,,,,,,,AMP,right,0.5504519156675087,0,,,,,,,,,,,,,,right,0,0.5504519156675087,,,,,,,,,1080,2019_Mar_15_1438,mf_amp_cond2,3.0.4,59.99020669877912,
Boeinf,&&&&&&&,None,nonword,Loorish,,,,,,,,,,,,,0,100,100,127,,,,,,,,,,,,,,,AMP,left,0.3669957398378756,0,,,,,,,,,,,,,,left,0,0.3669957398378756,,,,,,,,,1080,2019_Mar_15_1438,mf_amp_cond2,3.0.4,59.99020669877912,
injured,&&&&&&&&,right,care.vice,crinking,,,,,,,,,,,,,0,101,101,93,,,,,,,,,,,,,,,AMP,right,0.30030061428260524,1,,,,,,,,,,,,,,right,1,0.30030061428260524,,,,,,,,,1080,2019_Mar_15_1438,mf_amp_cond2,3.0.4,59.99020669877912,
help,&&&&,left,care.virtue,ning,,,,,,,,,,,,,0,102,102,137,,,,,,,,,,,,,,,AMP,left,0.5337104615900898,1,,,,,,,,,,,,,,left,1,0.5337104615900898,,,,,,,,,1080,2019_Mar_15_1438,mf_amp_cond2,3.0.4,59.99020669877912,
racist,&&&&&&&,right,sanctity.vice,emports,,,,,,,,,,,,,0,103,103,257,,,,,,,,,,,,,,,AMP,left,0.7170912673755083,0,,,,,,,,,,,,,,left,0,0.7170912673755083,,,,,,,,,1080,2019_Mar_15_1438,mf_amp_cond2,3.0.4,59.99020669877912,
strong,&&&&&&&,left,loyalty.virtue,stindig,,,,,,,,,,,,,0,104,104,174,,,,,,,,,,,,,,,AMP,left,0.133600966524682,1,,,,,,,,,,,,,,left,1,0.133600966524682,,,,,,,,,1080,2019_Mar_15_1438,mf_amp_cond2,3.0.4,59.99020669877912,
clean,&&&&&&&&&&&,left,sanctity.virtue,vicissifude,,,,,,,,,,,,,0,105,105,202,,,,,,,,,,,,,,,AMP,left,0.6837449874874437,1,,,,,,,,,,,,,,left,1,0.6837449874874437,,,,,,,,,1080,2019_Mar_15_1438,mf_amp_cond2,3.0.4,59.99020669877912,
strong,&&&&&&&&&,left,loyalty.virtue,gaultless,,,,,,,,,,,,,0,106,106,156,,,,,,,,,,,,,,,AMP,left,0.5170232098171255,1,,,,,,,,,,,,,,left,1,0.5170232098171255,,,,,,,,,1080,2019_Mar_15_1438,mf_amp_cond2,3.0.4,59.99020669877912,
restore,&&&&&&&,left,care.virtue,allears,,,,,,,,,,,,,0,107,107,195,,,,,,,,,,,,,,,AMP,right,0.4503575908456696,0,,,,,,,,,,,,,,right,0,0.4503575908456696,,,,,,,,,1080,2019_Mar_15_1438,mf_amp_cond2,3.0.4,59.99020669877912,
charges,&&&&&&&&&&&&,right,fairness.vice,nonobservalt,,,,,,,,,,,,,0,108,108,55,,,,,,,,,,,,,,,AMP,left,0.483724397039623,0,,,,,,,,,,,,,,left,0,0.483724397039623,,,,,,,,,1080,2019_Mar_15_1438,mf_amp_cond2,3.0.4,59.99020669877912,
attacks,&&&&&&&&&&&,right,care.vice,precificity,,,,,,,,,,,,,0,109,109,153,,,,,,,,,,,,,,,AMP,right,0.28364767992752604,1,,,,,,,,,,,,,,right,1,0.28364767992752604,,,,,,,,,1080,2019_Mar_15_1438,mf_amp_cond2,3.0.4,59.99020669877912,
respect,&&&&&,left,sanctity.virtue,aubos,,,,,,,,,,,,,0,110,110,327,,,,,,,,,,,,,,,AMP,right,0.9838358484994387,0,,,,,,,,,,,,,,right,0,0.9838358484994387,,,,,,,,,1080,2019_Mar_15_1438,mf_amp_cond2,3.0.4,59.99020669877912,
menizen,&&&&&&&&,None,nonword,fontacts,,,,,,,,,,,,,0,111,111,312,,,,,,,,,,,,,,,AMP,left,1.0838891206949484,0,,,,,,,,,,,,,,left,0,1.0838891206949484,,,,,,,,,1080,2019_Mar_15_1438,mf_amp_cond2,3.0.4,59.99020669877912,
peace,&&&&&&&,left,care.virtue,vurtain,,,,,,,,,,,,,0,112,112,33,,,,,,,,,,,,,,,AMP,left,0.41696833400055766,1,,,,,,,,,,,,,,left,1,0.41696833400055766,,,,,,,,,1080,2019_Mar_15_1438,mf_amp_cond2,3.0.4,59.99020669877912,
Boeinf,&&&&&&&&,None,nonword,perified,,,,,,,,,,,,,0,113,113,264,,,,,,,,,,,,,,,AMP,left,0.30031151887669694,0,,,,,,,,,,,,,,left,0,0.30031151887669694,,,,,,,,,1080,2019_Mar_15_1438,mf_amp_cond2,3.0.4,59.99020669877912,
prosecution,&&&&&&,right,authority.vice,letish,,,,,,,,,,,,,0,114,114,83,,,,,,,,,,,,,,,AMP,left,0.38366342746303417,0,,,,,,,,,,,,,,left,0,0.38366342746303417,,,,,,,,,1080,2019_Mar_15_1438,mf_amp_cond2,3.0.4,59.99020669877912,
trust,&&&&&&&,left,authority.virtue,chadows,,,,,,,,,,,,,0,115,115,308,,,,,,,,,,,,,,,AMP,left,0.5670795128389727,1,,,,,,,,,,,,,,left,1,0.5670795128389727,,,,,,,,,1080,2019_Mar_15_1438,mf_amp_cond2,3.0.4,59.99020669877912,
opportunity,&&&&&,left,fairness.virtue,uller,,,,,,,,,,,,,0,116,116,191,,,,,,,,,,,,,,,AMP,right,0.15027763442776632,0,,,,,,,,,,,,,,right,0,0.15027763442776632,,,,,,,,,1080,2019_Mar_15_1438,mf_amp_cond2,3.0.4,59.99020669877912,
win,&&&&&&&&&&&&&,left,fairness.virtue,idexpressible,,,,,,,,,,,,,0,117,117,108,,,,,,,,,,,,,,,AMP,right,0.4670313722162973,0,,,,,,,,,,,,,,right,0,0.4670313722162973,,,,,,,,,1080,2019_Mar_15_1438,mf_amp_cond2,3.0.4,59.99020669877912,
Boeinf,&&&&&&&&&&&&,None,nonword,feleological,,,,,,,,,,,,,0,118,118,67,,,,,,,,,,,,,,,AMP,left,0.4836990598560078,0,,,,,,,,,,,,,,left,0,0.4836990598560078,,,,,,,,,1080,2019_Mar_15_1438,mf_amp_cond2,3.0.4,59.99020669877912,
festate,&&&&&&&,None,nonword,vurtain,,,,,,,,,,,,,0,119,119,126,,,,,,,,,,,,,,,AMP,left,0.35032869363203645,0,,,,,,,,,,,,,,left,0,0.35032869363203645,,,,,,,,,1080,2019_Mar_15_1438,mf_amp_cond2,3.0.4,59.99020669877912,
pleasant,&&&,None,control,asn,,,,,,,,,,,,,0,120,120,280,,,,,,,,,,,,,,,AMP,right,0.5837189768062672,0,,,,,,,,,,,,,,right,0,0.5837189768062672,,,,,,,,,1080,2019_Mar_15_1438,mf_amp_cond2,3.0.4,59.99020669877912,
victim,&&&&&&&,right,care.vice,Loorish,,,,,,,,,,,,,0,121,121,265,,,,,,,,,,,,,,,AMP,left,0.33365587441949174,0,,,,,,,,,,,,,,left,0,0.33365587441949174,,,,,,,,,1080,2019_Mar_15_1438,mf_amp_cond2,3.0.4,59.99020669877912,
hate,&&&&&&&&&&,right,fairness.vice,imebreaker,,,,,,,,,,,,,0,122,122,61,,,,,,,,,,,,,,,AMP,right,0.3670127381774364,1,,,,,,,,,,,,,,right,1,0.3670127381774364,,,,,,,,,1080,2019_Mar_15_1438,mf_amp_cond2,3.0.4,59.99020669877912,
attacks,&&&&&&&,right,care.vice,sickyay,,,,,,,,,,,,,0,123,123,53,,,,,,,,,,,,,,,AMP,left,0.2836480006662896,0,,,,,,,,,,,,,,left,0,0.2836480006662896,,,,,,,,,1080,2019_Mar_15_1438,mf_amp_cond2,3.0.4,59.99020669877912,
love,&&&&&&&&,left,loyalty.virtue,lachelor,,,,,,,,,,,,,0,124,124,151,,,,,,,,,,,,,,,AMP,left,1.3839633040915942,1,,,,,,,,,,,,,,left,1,1.3839633040915942,,,,,,,,,1080,2019_Mar_15_1438,mf_amp_cond2,3.0.4,59.99020669877912,
charges,&&&&&&&&&,right,fairness.vice,disregord,,,,,,,,,,,,,0,125,125,219,,,,,,,,,,,,,,,AMP,left,0.31698305520694703,0,,,,,,,,,,,,,,left,0,0.31698305520694703,,,,,,,,,1080,2019_Mar_15_1438,mf_amp_cond2,3.0.4,59.99020669877912,
gowlands,&&&&&&&&&&&,None,nonword,precificity,,,,,,,,,,,,,0,126,126,3,,,,,,,,,,,,,,,AMP,left,0.25029530630854424,0,,,,,,,,,,,,,,left,0,0.25029530630854424,,,,,,,,,1080,2019_Mar_15_1438,mf_amp_cond2,3.0.4,59.99020669877912,
killed,&&&&&&&&&&&,right,care.vice,precificity,,,,,,,,,,,,,0,127,127,300,,,,,,,,,,,,,,,AMP,left,0.300324668554822,0,,,,,,,,,,,,,,left,0,0.300324668554822,,,,,,,,,1080,2019_Mar_15_1438,mf_amp_cond2,3.0.4,59.99020669877912,
troops,&&&&&&&&&&&&&,right,loyalty.vice,idexpressible,,,,,,,,,,,,,0,128,128,66,,,,,,,,,,,,,,,AMP,left,0.10028355178656057,0,,,,,,,,,,,,,,left,0,0.10028355178656057,,,,,,,,,1080,2019_Mar_15_1438,mf_amp_cond2,3.0.4,59.99020669877912,
unpleasant,&&&&&&&,None,control,hatigue,,,,,,,,,,,,,0,129,129,129,,,,,,,,,,,,,,,AMP,right,0.2836431898031151,0,,,,,,,,,,,,,,right,0,0.2836431898031151,,,,,,,,,1080,2019_Mar_15_1438,mf_amp_cond2,3.0.4,59.99020669877912,
powerful,&&&&,left,authority.virtue,tove,,,,,,,,,,,,,0,130,130,175,,,,,,,,,,,,,,,AMP,left,0.18361974490107968,1,,,,,,,,,,,,,,left,1,0.18361974490107968,,,,,,,,,1080,2019_Mar_15_1438,mf_amp_cond2,3.0.4,59.99020669877912,
peaceful,&&&&&,left,authority.virtue,scock,,,,,,,,,,,,,0,131,131,49,,,,,,,,,,,,,,,AMP,left,0.15027923804882448,1,,,,,,,,,,,,,,left,1,0.15027923804882448,,,,,,,,,1080,2019_Mar_15_1438,mf_amp_cond2,3.0.4,59.99020669877912,
friends,&&&&&&&,left,loyalty.virtue,gedious,,,,,,,,,,,,,0,132,132,255,,,,,,,,,,,,,,,AMP,right,0.15028084166988265,0,,,,,,,,,,,,,,right,0,0.15028084166988265,,,,,,,,,1080,2019_Mar_15_1438,mf_amp_cond2,3.0.4,59.99020669877912,
civilians,&&&&&&&&,right,care.vice,drumbled,,,,,,,,,,,,,0,133,133,273,,,,,,,,,,,,,,,AMP,right,0.2503039658331545,1,,,,,,,,,,,,,,right,1,0.2503039658331545,,,,,,,,,1080,2019_Mar_15_1438,mf_amp_cond2,3.0.4,59.99020669877912,
rebels,&&&&&&&&&,right,authority.vice,gaultless,,,,,,,,,,,,,0,134,134,223,,,,,,,,,,,,,,,AMP,right,0.7504292084340705,1,,,,,,,,,,,,,,right,1,0.7504292084340705,,,,,,,,,1080,2019_Mar_15_1438,mf_amp_cond2,3.0.4,59.99020669877912,
love,&&&&&&&&&&&&,left,loyalty.virtue,edancipation,,,,,,,,,,,,,0,135,135,15,,,,,,,,,,,,,,,AMP,right,1.1172030074812938,0,,,,,,,,,,,,,,right,0,1.1172030074812938,,,,,,,,,1080,2019_Mar_15_1438,mf_amp_cond2,3.0.4,59.99020669877912,
blamed,&&&&&&&,right,loyalty.vice,troubla,,,,,,,,,,,,,0,136,136,8,,,,,,,,,,,,,,,AMP,right,0.40031347530020867,1,,,,,,,,,,,,,,right,1,0.40031347530020867,,,,,,,,,1080,2019_Mar_15_1438,mf_amp_cond2,3.0.4,59.99020669877912,
promises,&&&&&&&&&&,left,fairness.virtue,abointment,,,,,,,,,,,,,0,137,137,211,,,,,,,,,,,,,,,AMP,right,0.5170405288808979,0,,,,,,,,,,,,,,right,0,0.5170405288808979,,,,,,,,,1080,2019_Mar_15_1438,mf_amp_cond2,3.0.4,59.99020669877912,
harassment,&&&&&&&&,right,sanctity.vice,nuckheap,,,,,,,,,,,,,0,138,138,43,,,,,,,,,,,,,,,AMP,right,0.21696089320175815,1,,,,,,,,,,,,,,right,1,0.21696089320175815,,,,,,,,,1080,2019_Mar_15_1438,mf_amp_cond2,3.0.4,59.99020669877912,
troops,&&&&,right,loyalty.vice,ning,,,,,,,,,,,,,0,139,139,230,,,,,,,,,,,,,,,AMP,right,0.4502087750734063,1,,,,,,,,,,,,,,right,1,0.4502087750734063,,,,,,,,,1080,2019_Mar_15_1438,mf_amp_cond2,3.0.4,59.99020669877912,
protect,&&&&&&,left,fairness.virtue,bycled,,,,,,,,,,,,,0,140,140,62,,,,,,,,,,,,,,,AMP,right,0.2503049280203413,0,,,,,,,,,,,,,,right,0,0.2503049280203413,,,,,,,,,1080,2019_Mar_15_1438,mf_amp_cond2,3.0.4,59.99020669877912,
protesters,&&&&&&&&,right,authority.vice,proached,,,,,,,,,,,,,0,141,141,310,,,,,,,,,,,,,,,AMP,left,0.2503001171571668,0,,,,,,,,,,,,,,left,0,0.2503001171571668,,,,,,,,,1080,2019_Mar_15_1438,mf_amp_cond2,3.0.4,59.99020669877912,
accused,&&&&&&&&&&&,right,fairness.vice,ilportation,,,,,,,,,,,,,0,142,142,282,,,,,,,,,,,,,,,AMP,right,0.36699958849931136,1,,,,,,,,,,,,,,right,1,0.36699958849931136,,,,,,,,,1080,2019_Mar_15_1438,mf_amp_cond2,3.0.4,59.99020669877912,
abuse,&&&&&&&&&&&&,right,sanctity.vice,nonobservalt,,,,,,,,,,,,,0,143,143,132,,,,,,,,,,,,,,,AMP,right,0.3836833123350516,1,,,,,,,,,,,,,,right,1,0.3836833123350516,,,,,,,,,1080,2019_Mar_15_1438,mf_amp_cond2,3.0.4,59.99020669877912,
embrace,&&&&&&&&&,left,authority.virtue,neputized,,,,,,,,,,,,,0,144,144,228,,,,,,,,,,,,,,,AMP,right,0.7838030705461279,0,,,,,,,,,,,,,,right,0,0.7838030705461279,,,,,,,,,1080,2019_Mar_15_1438,mf_amp_cond2,3.0.4,59.99020669877912,
war,&&&&&&&&&&&&,right,sanctity.vice,quarterbocks,,,,,,,,,,,,,0,145,145,311,,,,,,,,,,,,,,,AMP,left,0.36698964607785456,0,,,,,,,,,,,,,,left,0,0.36698964607785456,,,,,,,,,1080,2019_Mar_15_1438,mf_amp_cond2,3.0.4,59.99020669877912,
scandal,&&&&&&&&&&,right,sanctity.vice,imebreaker,,,,,,,,,,,,,0,146,146,258,,,,,,,,,,,,,,,AMP,right,0.5337149517145008,1,,,,,,,,,,,,,,right,1,0.5337149517145008,,,,,,,,,1080,2019_Mar_15_1438,mf_amp_cond2,3.0.4,59.99020669877912,
rejected,&&&&,right,authority.vice,tove,,,,,,,,,,,,,0,147,147,305,,,,,,,,,,,,,,,AMP,left,0.6170707089913776,0,,,,,,,,,,,,,,left,0,0.6170707089913776,,,,,,,,,1080,2019_Mar_15_1438,mf_amp_cond2,3.0.4,59.99020669877912,
promote,&&&&&&&,left,sanctity.virtue,sickyay,,,,,,,,,,,,,0,148,148,91,,,,,,,,,,,,,,,AMP,left,0.8004662680468755,1,,,,,,,,,,,,,,left,1,0.8004662680468755,,,,,,,,,1080,2019_Mar_15_1438,mf_amp_cond2,3.0.4,59.99020669877912,
hate,&&&&&,right,fairness.vice,scock,,,,,,,,,,,,,0,149,149,95,,,,,,,,,,,,,,,AMP,left,0.5669444881787058,0,,,,,,,,,,,,,,left,0,0.5669444881787058,,,,,,,,,1080,2019_Mar_15_1438,mf_amp_cond2,3.0.4,59.99020669877912,
scandal,&&&,right,sanctity.vice,asn,,,,,,,,,,,,,0,150,150,140,,,,,,,,,,,,,,,AMP,left,0.26697197419707663,0,,,,,,,,,,,,,,left,0,0.26697197419707663,,,,,,,,,1080,2019_Mar_15_1438,mf_amp_cond2,3.0.4,59.99020669877912,
powerful,&&&&&&&&&,left,authority.virtue,gondensed,,,,,,,,,,,,,0,151,151,38,,,,,,,,,,,,,,,AMP,left,0.05025162374658976,1,,,,,,,,,,,,,,left,1,0.05025162374658976,,,,,,,,,1080,2019_Mar_15_1438,mf_amp_cond2,3.0.4,59.99020669877912,
prosecution,&&&&&&,right,authority.vice,letish,,,,,,,,,,,,,0,152,152,248,,,,,,,,,,,,,,,AMP,left,0.7671013861981919,0,,,,,,,,,,,,,,left,0,0.7671013861981919,,,,,,,,,1080,2019_Mar_15_1438,mf_amp_cond2,3.0.4,59.99020669877912,
prosecution,&&&&&,right,authority.vice,aubos,,,,,,,,,,,,,0,153,153,186,,,,,,,,,,,,,,,AMP,left,0.03358553972793743,0,,,,,,,,,,,,,,left,0,0.03358553972793743,,,,,,,,,1080,2019_Mar_15_1438,mf_amp_cond2,3.0.4,59.99020669877912,
peace,&&&&&&&&,left,care.virtue,proached,,,,,,,,,,,,,0,154,154,97,,,,,,,,,,,,,,,AMP,left,0.45035630793427117,1,,,,,,,,,,,,,,left,1,0.45035630793427117,,,,,,,,,1080,2019_Mar_15_1438,mf_amp_cond2,3.0.4,59.99020669877912,
rejected,&&&&&&&&,right,authority.vice,perified,,,,,,,,,,,,,0,155,155,76,,,,,,,,,,,,,,,AMP,right,0.7671010654739803,1,,,,,,,,,,,,,,right,1,0.7671010654739803,,,,,,,,,1080,2019_Mar_15_1438,mf_amp_cond2,3.0.4,59.99020669877912,
embrace,&&&&&&&,left,authority.virtue,scalbel,,,,,,,,,,,,,0,156,156,11,,,,,,,,,,,,,,,AMP,right,0.35035627587058116,0,,,,,,,,,,,,,,right,0,0.35035627587058116,,,,,,,,,1080,2019_Mar_15_1438,mf_amp_cond2,3.0.4,59.99020669877912,
trust,&&&&&&&&&&,left,authority.virtue,lorthwhile,,,,,,,,,,,,,0,157,157,42,,,,,,,,,,,,,,,AMP,left,0.33366260962793604,1,,,,,,,,,,,,,,left,1,0.33366260962793604,,,,,,,,,1080,2019_Mar_15_1438,mf_amp_cond2,3.0.4,59.99020669877912,
festate,&&&&&&&&&&,None,nonword,galamitous,,,,,,,,,,,,,0,158,158,303,,,,,,,,,,,,,,,AMP,left,0.11682679863588419,0,,,,,,,,,,,,,,left,0,0.11682679863588419,,,,,,,,,1080,2019_Mar_15_1438,mf_amp_cond2,3.0.4,59.99020669877912,
trust,&&&&&&&&&&&&&,left,authority.virtue,esquisiteness,,,,,,,,,,,,,0,159,159,144,,,,,,,,,,,,,,,AMP,right,0.06692155645578168,0,,,,,,,,,,,,,,right,0,0.06692155645578168,,,,,,,,,1080,2019_Mar_15_1438,mf_amp_cond2,3.0.4,59.99020669877912,
racist,&&&&&&&&&,right,sanctity.vice,Phintoism,,,,,,,,,,,,,0,160,160,65,,,,,,,,,,,,,,,AMP,right,0.36700022996228654,1,,,,,,,,,,,,,,right,1,0.36700022996228654,,,,,,,,,1080,2019_Mar_15_1438,mf_amp_cond2,3.0.4,59.99020669877912,
good,&&&&&&&&&,left,care.virtue,crilfully,,,,,,,,,,,,,0,161,161,80,,,,,,,,,,,,,,,AMP,right,0.10028355178656057,0,,,,,,,,,,,,,,right,0,0.10028355178656057,,,,,,,,,1080,2019_Mar_15_1438,mf_amp_cond2,3.0.4,59.99020669877912,
encourage,&&&&&&&&&,left,authority.virtue,reprisols,,,,,,,,,,,,,0,162,162,87,,,,,,,,,,,,,,,AMP,right,0.050259000388905406,0,,,,,,,,,,,,,,right,0,0.050259000388905406,,,,,,,,,1080,2019_Mar_15_1438,mf_amp_cond2,3.0.4,59.99020669877912,
greaks,&&&&&&&&&&,None,nonword,ecgagement,,,,,,,,,,,,,0,163,163,164,,,,,,,,,,,,,,,AMP,left,0.5170398874324746,0,,,,,,,,,,,,,,left,0,0.5170398874324746,,,,,,,,,1080,2019_Mar_15_1438,mf_amp_cond2,3.0.4,59.99020669877912,
intelligence,&&&&&&&&&,left,loyalty.virtue,faspberry,,,,,,,,,,,,,0,164,164,64,,,,,,,,,,,,,,,AMP,right,0.567058986533084,0,,,,,,,,,,,,,,right,0,0.567058986533084,,,,,,,,,1080,2019_Mar_15_1438,mf_amp_cond2,3.0.4,59.99020669877912,
hope,&&&&&&&&&,left,loyalty.virtue,neputized,,,,,,,,,,,,,0,165,165,120,,,,,,,,,,,,,,,AMP,left,0.30035481658705976,1,,,,,,,,,,,,,,left,1,0.30035481658705976,,,,,,,,,1080,2019_Mar_15_1438,mf_amp_cond2,3.0.4,59.99020669877912,
shot,&&&&&&&&&,right,care.vice,discovars,,,,,,,,,,,,,0,166,166,105,,,,,,,,,,,,,,,AMP,left,0.33365972311003134,0,,,,,,,,,,,,,,left,0,0.33365972311003134,,,,,,,,,1080,2019_Mar_15_1438,mf_amp_cond2,3.0.4,59.99020669877912,
peaceful,&&&&&&&&,left,authority.virtue,emassion,,,,,,,,,,,,,0,167,167,161,,,,,,,,,,,,,,,AMP,left,0.567050968442345,1,,,,,,,,,,,,,,left,1,0.567050968442345,,,,,,,,,1080,2019_Mar_15_1438,mf_amp_cond2,3.0.4,59.99020669877912,
troops,&&&&&&&,right,loyalty.vice,allears,,,,,,,,,,,,,0,168,168,272,,,,,,,,,,,,,,,AMP,right,0.16695654740033206,1,,,,,,,,,,,,,,right,1,0.16695654740033206,,,,,,,,,1080,2019_Mar_15_1438,mf_amp_cond2,3.0.4,59.99020669877912,
critics,&&&&&,right,loyalty.vice,aubos,,,,,,,,,,,,,0,169,169,77,,,,,,,,,,,,,,,AMP,left,0.4003391331934836,0,,,,,,,,,,,,,,left,0,0.4003391331934836,,,,,,,,,1080,2019_Mar_15_1438,mf_amp_cond2,3.0.4,59.99020669877912,
unpleasant,&&&&&,None,control,touls,,,,,,,,,,,,,0,170,170,201,,,,,,,,,,,,,,,AMP,right,0.38368010509293526,0,,,,,,,,,,,,,,right,0,0.38368010509293526,,,,,,,,,1080,2019_Mar_15_1438,mf_amp_cond2,3.0.4,59.99020669877912,
promote,&&&&&&&&&,left,sanctity.virtue,disregord,,,,,,,,,,,,,0,171,171,307,,,,,,,,,,,,,,,AMP,right,0.4503547043277649,0,,,,,,,,,,,,,,right,0,0.4503547043277649,,,,,,,,,1080,2019_Mar_15_1438,mf_amp_cond2,3.0.4,59.99020669877912,
lies,&&&&&,right,fairness.vice,atson,,,,,,,,,,,,,0,172,172,190,,,,,,,,,,,,,,,AMP,left,0.26703515676490497,0,,,,,,,,,,,,,,left,0,0.26703515676490497,,,,,,,,,1080,2019_Mar_15_1438,mf_amp_cond2,3.0.4,59.99020669877912,
attacks,&&&&&&&&,right,care.vice,bluently,,,,,,,,,,,,,0,173,173,240,,,,,,,,,,,,,,,AMP,left,0.28363773750606924,0,,,,,,,,,,,,,,left,0,0.28363773750606924,,,,,,,,,1080,2019_Mar_15_1438,mf_amp_cond2,3.0.4,59.99020669877912,
fighters,&&&&&&&&,right,authority.vice,ebbitter,,,,,,,,,,,,,0,174,174,21,,,,,,,,,,,,,,,AMP,right,0.33366453397320583,1,,,,,,,,,,,,,,right,1,0.33366453397320583,,,,,,,,,1080,2019_Mar_15_1438,mf_amp_cond2,3.0.4,59.99020669877912,
commitment,&&&&&&&&&&,left,sanctity.virtue,frojecting,,,,,,,,,,,,,0,175,175,115,,,,,,,,,,,,,,,AMP,right,0.583720901151537,0,,,,,,,,,,,,,,right,0,0.583720901151537,,,,,,,,,1080,2019_Mar_15_1438,mf_amp_cond2,3.0.4,59.99020669877912,
safe,&&&&&&&&&,left,care.virtue,ittutable,,,,,,,,,,,,,0,176,176,2,,,,,,,,,,,,,,,AMP,left,0.23363082591095008,1,,,,,,,,,,,,,,left,1,0.23363082591095008,,,,,,,,,1080,2019_Mar_15_1438,mf_amp_cond2,3.0.4,59.99020669877912,
improve,&&&&&&&&&&,left,care.virtue,ammessment,,,,,,,,,,,,,0,177,177,246,,,,,,,,,,,,,,,AMP,right,0.2669713327632053,0,,,,,,,,,,,,,,right,0,0.2669713327632053,,,,,,,,,1080,2019_Mar_15_1438,mf_amp_cond2,3.0.4,59.99020669877912,
praise,&&&&&&&&&,left,authority.virtue,metibolic,,,,,,,,,,,,,0,178,178,292,,,,,,,,,,,,,,,AMP,right,0.3170513693476096,0,,,,,,,,,,,,,,right,0,0.3170513693476096,,,,,,,,,1080,2019_Mar_15_1438,mf_amp_cond2,3.0.4,59.99020669877912,
rejected,&&&&&,right,authority.vice,touls,,,,,,,,,,,,,0,179,179,139,,,,,,,,,,,,,,,AMP,left,0.2836396618367871,0,,,,,,,,,,,,,,left,0,0.2836396618367871,,,,,,,,,1080,2019_Mar_15_1438,mf_amp_cond2,3.0.4,59.99020669877912,
pescinded,&&&&&&&&&&&,None,nonword,sowntrodden,,,,,,,,,,,,,0,180,180,237,,,,,,,,,,,,,,,AMP,left,0.43369503477879334,0,,,,,,,,,,,,,,left,0,0.43369503477879334,,,,,,,,,1080,2019_Mar_15_1438,mf_amp_cond2,3.0.4,59.99020669877912,
terrorists,&&&&&&,right,fairness.vice,gikely,,,,,,,,,,,,,0,181,181,322,,,,,,,,,,,,,,,AMP,right,0.45036176024586894,1,,,,,,,,,,,,,,right,1,0.45036176024586894,,,,,,,,,1080,2019_Mar_15_1438,mf_amp_cond2,3.0.4,59.99020669877912,
frocessing,&&&&&&&&&&&&&,None,nonword,idexpressible,,,,,,,,,,,,,0,182,182,318,,,,,,,,,,,,,,,AMP,right,0.5170341144112172,0,,,,,,,,,,,,,,right,0,0.5170341144112172,,,,,,,,,1080,2019_Mar_15_1438,mf_amp_cond2,3.0.4,59.99020669877912,
sharing,&&&&&&&&&&&&,left,loyalty.virtue,rorroborated,,,,,,,,,,,,,0,183,183,48,,,,,,,,,,,,,,,AMP,left,3.5511642429046333,1,,,,,,,,,,,,,,left,1,3.5511642429046333,,,,,,,,,1080,2019_Mar_15_1438,mf_amp_cond2,3.0.4,59.99020669877912,
war,&&&&&&&&&&&,right,sanctity.vice,ronviolence,,,,,,,,,,,,,0,184,184,119,,,,,,,,,,,,,,,AMP,left,0.15027378573722672,0,,,,,,,,,,,,,,left,0,0.15027378573722672,,,,,,,,,1080,2019_Mar_15_1438,mf_amp_cond2,3.0.4,59.99020669877912,
encourage,&&&&&&&&&&&&,left,authority.virtue,rorroborated,,,,,,,,,,,,,0,185,185,210,,,,,,,,,,,,,,,AMP,right,0.5503909781691618,0,,,,,,,,,,,,,,right,0,0.5503909781691618,,,,,,,,,1080,2019_Mar_15_1438,mf_amp_cond2,3.0.4,59.99020669877912,
harassment,&&&&&&&&&,right,sanctity.vice,Phintoism,,,,,,,,,,,,,0,186,186,317,,,,,,,,,,,,,,,AMP,right,0.21696345899545122,1,,,,,,,,,,,,,,right,1,0.21696345899545122,,,,,,,,,1080,2019_Mar_15_1438,mf_amp_cond2,3.0.4,59.99020669877912,
refused,&&&&&&&&&,right,authority.vice,reprisols,,,,,,,,,,,,,0,187,187,225,,,,,,,,,,,,,,,AMP,right,0.4503582322940929,1,,,,,,,,,,,,,,right,1,0.4503582322940929,,,,,,,,,1080,2019_Mar_15_1438,mf_amp_cond2,3.0.4,59.99020669877912,
useful,&&&&&&&&&&&&,left,authority.virtue,quarterbocks,,,,,,,,,,,,,0,188,188,184,,,,,,,,,,,,,,,AMP,right,1.167201900985674,0,,,,,,,,,,,,,,right,0,1.167201900985674,,,,,,,,,1080,2019_Mar_15_1438,mf_amp_cond2,3.0.4,59.99020669877912,
fighters,&&&&&,right,authority.vice,saned,,,,,,,,,,,,,0,189,189,206,,,,,,,,,,,,,,,AMP,right,0.0835914891504217,1,,,,,,,,,,,,,,right,1,0.0835914891504217,,,,,,,,,1080,2019_Mar_15_1438,mf_amp_cond2,3.0.4,59.99020669877912,
useful,&&&&&&&,left,authority.virtue,chadows,,,,,,,,,,,,,0,190,190,86,,,,,,,,,,,,,,,AMP,right,0.16694147339148913,0,,,,,,,,,,,,,,right,0,0.16694147339148913,,,,,,,,,1080,2019_Mar_15_1438,mf_amp_cond2,3.0.4,59.99020669877912,
troops,&&&&&&&&,right,loyalty.vice,nuckheap,,,,,,,,,,,,,0,191,191,122,,,,,,,,,,,,,,,AMP,right,0.5170379630872048,1,,,,,,,,,,,,,,right,1,0.5170379630872048,,,,,,,,,1080,2019_Mar_15_1438,mf_amp_cond2,3.0.4,59.99020669877912,
praise,&&&&&&&,left,authority.virtue,baklara,,,,,,,,,,,,,0,192,192,81,,,,,,,,,,,,,,,AMP,left,0.0002520887937862426,1,,,,,,,,,,,,,,left,1,0.0002520887937862426,,,,,,,,,1080,2019_Mar_15_1438,mf_amp_cond2,3.0.4,59.99020669877912,
hope,&&&&&&&&&&&&,left,loyalty.virtue,feleological,,,,,,,,,,,,,0,193,193,279,,,,,,,,,,,,,,,AMP,right,0.4003522828570567,0,,,,,,,,,,,,,,right,0,0.4003522828570567,,,,,,,,,1080,2019_Mar_15_1438,mf_amp_cond2,3.0.4,59.99020669877912,
restore,&&&&&,left,care.virtue,touls,,,,,,,,,,,,,0,194,194,72,,,,,,,,,,,,,,,AMP,left,0.8171195231261663,1,,,,,,,,,,,,,,left,1,0.8171195231261663,,,,,,,,,1080,2019_Mar_15_1438,mf_amp_cond2,3.0.4,59.99020669877912,
charges,&&&&&,right,fairness.vice,noped,,,,,,,,,,,,,0,195,195,299,,,,,,,,,,,,,,,AMP,left,0.016914324136450887,0,,,,,,,,,,,,,,left,0,0.016914324136450887,,,,,,,,,1080,2019_Mar_15_1438,mf_amp_cond2,3.0.4,59.99020669877912,
dignity,&&&&&,left,sanctity.virtue,scock,,,,,,,,,,,,,0,196,196,196,,,,,,,,,,,,,,,AMP,left,0.13359743857290596,1,,,,,,,,,,,,,,left,1,0.13359743857290596,,,,,,,,,1080,2019_Mar_15_1438,mf_amp_cond2,3.0.4,59.99020669877912,
forced,&&&&&&&&,right,fairness.vice,thadowed,,,,,,,,,,,,,0,197,197,285,,,,,,,,,,,,,,,AMP,right,0.08359277204726823,1,,,,,,,,,,,,,,right,1,0.08359277204726823,,,,,,,,,1080,2019_Mar_15_1438,mf_amp_cond2,3.0.4,59.99020669877912,
betrayal,&&&&&&&&,right,loyalty.vice,sliptery,,,,,,,,,,,,,0,198,198,16,,,,,,,,,,,,,,,AMP,left,0.0002530509664211422,0,,,,,,,,,,,,,,left,0,0.0002530509664211422,,,,,,,,,1080,2019_Mar_15_1438,mf_amp_cond2,3.0.4,59.99020669877912,
clean,&&&&&&,left,sanctity.virtue,erdest,,,,,,,,,,,,,0,199,199,163,,,,,,,,,,,,,,,AMP,right,0.016881610310520045,0,,,,,,,,,,,,,,right,0,0.016881610310520045,,,,,,,,,1080,2019_Mar_15_1438,mf_amp_cond2,3.0.4,59.99020669877912,
commitment,&&&&&&&&&,left,sanctity.virtue,crilfully,,,,,,,,,,,,,0,200,200,321,,,,,,,,,,,,,,,AMP,right,0.45035598722461145,0,,,,,,,,,,,,,,right,0,0.45035598722461145,,,,,,,,,1080,2019_Mar_15_1438,mf_amp_cond2,3.0.4,59.99020669877912,
hand,&&&&&&&&&,left,sanctity.virtue,Phintoism,,,,,,,,,,,,,0,201,201,213,,,,,,,,,,,,,,,AMP,right,0.2503353967622388,0,,,,,,,,,,,,,,right,0,0.2503353967622388,,,,,,,,,1080,2019_Mar_15_1438,mf_amp_cond2,3.0.4,59.99020669877912,
health,&&&&&&&&&&,left,care.virtue,abointment,,,,,,,,,,,,,0,202,202,114,,,,,,,,,,,,,,,AMP,left,0.5170709976373473,1,,,,,,,,,,,,,,left,1,0.5170709976373473,,,,,,,,,1080,2019_Mar_15_1438,mf_amp_cond2,3.0.4,59.99020669877912,
party,&&&&&&&&&&&,left,loyalty.virtue,neneficence,,,,,,,,,,,,,0,203,203,22,,,,,,,,,,,,,,,AMP,left,0.36699638127174694,1,,,,,,,,,,,,,,left,1,0.36699638127174694,,,,,,,,,1080,2019_Mar_15_1438,mf_amp_cond2,3.0.4,59.99020669877912,
pescinded,&&&&&&&&&&&,None,nonword,ilportation,,,,,,,,,,,,,0,204,204,118,,,,,,,,,,,,,,,AMP,left,0.36701722831639927,0,,,,,,,,,,,,,,left,0,0.36701722831639927,,,,,,,,,1080,2019_Mar_15_1438,mf_amp_cond2,3.0.4,59.99020669877912,
dignity,&&&&&&&,left,sanctity.virtue,brudent,,,,,,,,,,,,,0,205,205,35,,,,,,,,,,,,,,,AMP,right,0.33365587441949174,0,,,,,,,,,,,,,,right,0,0.33365587441949174,,,,,,,,,1080,2019_Mar_15_1438,mf_amp_cond2,3.0.4,59.99020669877912,
opportunity,&&&&&,left,fairness.virtue,atson,,,,,,,,,,,,,0,206,206,284,,,,,,,,,,,,,,,AMP,right,0.0002549752971390262,0,,,,,,,,,,,,,,right,0,0.0002549752971390262,,,,,,,,,1080,2019_Mar_15_1438,mf_amp_cond2,3.0.4,59.99020669877912,
benefit,&&&&&&&,left,fairness.virtue,Loorish,,,,,,,,,,,,,0,207,207,46,,,,,,,,,,,,,,,AMP,left,0.21696698694722727,1,,,,,,,,,,,,,,left,1,0.21696698694722727,,,,,,,,,1080,2019_Mar_15_1438,mf_amp_cond2,3.0.4,59.99020669877912,
hand,&&&&&&&&&&,left,sanctity.virtue,clattening,,,,,,,,,,,,,0,208,208,19,,,,,,,,,,,,,,,AMP,left,0.3003089530975558,1,,,,,,,,,,,,,,left,1,0.3003089530975558,,,,,,,,,1080,2019_Mar_15_1438,mf_amp_cond2,3.0.4,59.99020669877912,
gowlands,&&&&&&&&&&&&,None,nonword,unreflectuve,,,,,,,,,,,,,0,209,209,260,,,,,,,,,,,,,,,AMP,left,0.00025497531169094145,0,,,,,,,,,,,,,,left,0,0.00025497531169094145,,,,,,,,,1080,2019_Mar_15_1438,mf_amp_cond2,3.0.4,59.99020669877912,
hand,&&&&&,left,sanctity.virtue,atson,,,,,,,,,,,,,0,210,210,138,,,,,,,,,,,,,,,AMP,left,0.3170026193547528,1,,,,,,,,,,,,,,left,1,0.3170026193547528,,,,,,,,,1080,2019_Mar_15_1438,mf_amp_cond2,3.0.4,59.99020669877912,
embrace,&&&&&&&&&&,left,authority.virtue,simplustic,,,,,,,,,,,,,0,211,211,159,,,,,,,,,,,,,,,AMP,left,0.3670018335833447,1,,,,,,,,,,,,,,left,1,0.3670018335833447,,,,,,,,,1080,2019_Mar_15_1438,mf_amp_cond2,3.0.4,59.99020669877912,
rejected,&&&&&,right,authority.vice,noped,,,,,,,,,,,,,0,212,212,231,,,,,,,,,,,,,,,AMP,right,0.7505013712507207,1,,,,,,,,,,,,,,right,1,0.7505013712507207,,,,,,,,,1080,2019_Mar_15_1438,mf_amp_cond2,3.0.4,59.99020669877912,
greaks,&&&&&&&&&&&&,None,nonword,edancipation,,,,,,,,,,,,,0,213,213,262,,,,,,,,,,,,,,,AMP,left,0.3670018335833447,0,,,,,,,,,,,,,,left,0,0.3670018335833447,,,,,,,,,1080,2019_Mar_15_1438,mf_amp_cond2,3.0.4,59.99020669877912,
respect,&&&&&&&,left,sanctity.virtue,stindig,,,,,,,,,,,,,0,214,214,68,,,,,,,,,,,,,,,AMP,right,0.0669266880286159,0,,,,,,,,,,,,,,right,0,0.0669266880286159,,,,,,,,,1080,2019_Mar_15_1438,mf_amp_cond2,3.0.4,59.99020669877912,
benefit,&&&&&&&&&&,left,fairness.virtue,honstables,,,,,,,,,,,,,0,215,215,319,,,,,,,,,,,,,,,AMP,left,0.06692732946248725,1,,,,,,,,,,,,,,left,1,0.06692732946248725,,,,,,,,,1080,2019_Mar_15_1438,mf_amp_cond2,3.0.4,59.99020669877912,
love,&&&&&&&,left,loyalty.virtue,emports,,,,,,,,,,,,,0,216,216,193,,,,,,,,,,,,,,,AMP,right,0.45035310070670675,0,,,,,,,,,,,,,,right,0,0.45035310070670675,,,,,,,,,1080,2019_Mar_15_1438,mf_amp_cond2,3.0.4,59.99020669877912,
forced,&&&&&&&&,right,fairness.vice,lachelor,,,,,,,,,,,,,0,217,217,34,,,,,,,,,,,,,,,AMP,left,0.4336786778731039,0,,,,,,,,,,,,,,left,0,0.4336786778731039,,,,,,,,,1080,2019_Mar_15_1438,mf_amp_cond2,3.0.4,59.99020669877912,
friends,&&&&&&&,left,loyalty.virtue,hatigue,,,,,,,,,,,,,0,218,218,182,,,,,,,,,,,,,,,AMP,right,0.4836929661105387,0,,,,,,,,,,,,,,right,0,0.4836929661105387,,,,,,,,,1080,2019_Mar_15_1438,mf_amp_cond2,3.0.4,59.99020669877912,
frocessing,&&&&&&,None,nonword,letish,,,,,,,,,,,,,0,219,219,177,,,,,,,,,,,,,,,AMP,right,0.23360965814208612,0,,,,,,,,,,,,,,right,0,0.23360965814208612,,,,,,,,,1080,2019_Mar_15_1438,mf_amp_cond2,3.0.4,59.99020669877912,
pescinded,&&&&&&&&&,None,nonword,gaultless,,,,,,,,,,,,,0,220,220,30,,,,,,,,,,,,,,,AMP,right,0.03357078644330613,0,,,,,,,,,,,,,,right,0,0.03357078644330613,,,,,,,,,1080,2019_Mar_15_1438,mf_amp_cond2,3.0.4,59.99020669877912,
pescinded,&&&&&&&&&&,None,nonword,simplustic,,,,,,,,,,,,,0,221,221,290,,,,,,,,,,,,,,,AMP,right,0.18361846200423315,0,,,,,,,,,,,,,,right,0,0.18361846200423315,,,,,,,,,1080,2019_Mar_15_1438,mf_amp_cond2,3.0.4,59.99020669877912,
groups,&&&&&,right,loyalty.vice,uller,,,,,,,,,,,,,0,222,222,131,,,,,,,,,,,,,,,AMP,right,1.2172129819955444,1,,,,,,,,,,,,,,right,1,1.2172129819955444,,,,,,,,,1080,2019_Mar_15_1438,mf_amp_cond2,3.0.4,59.99020669877912,
dignity,&&&&&&&,left,sanctity.virtue,troubla,,,,,,,,,,,,,0,223,223,320,,,,,,,,,,,,,,,AMP,left,0.05025162374658976,1,,,,,,,,,,,,,,left,1,0.05025162374658976,,,,,,,,,1080,2019_Mar_15_1438,mf_amp_cond2,3.0.4,59.99020669877912,
restore,&&&&&&&,left,care.virtue,troubla,,,,,,,,,,,,,0,224,224,124,,,,,,,,,,,,,,,AMP,left,0.18360884029243607,1,,,,,,,,,,,,,,left,1,0.18360884029243607,,,,,,,,,1080,2019_Mar_15_1438,mf_amp_cond2,3.0.4,59.99020669877912,
menizen,&&&&&&&&,None,nonword,bluently,,,,,,,,,,,,,0,225,225,103,,,,,,,,,,,,,,,AMP,left,0.15033664758084342,0,,,,,,,,,,,,,,left,0,0.15033664758084342,,,,,,,,,1080,2019_Mar_15_1438,mf_amp_cond2,3.0.4,59.99020669877912,
menizen,&&&&&&&&&,None,nonword,faspberry,,,,,,,,,,,,,0,226,226,242,,,,,,,,,,,,,,,AMP,right,0.8171179195051081,0,,,,,,,,,,,,,,right,0,0.8171179195051081,,,,,,,,,1080,2019_Mar_15_1438,mf_amp_cond2,3.0.4,59.99020669877912,
corruption,&&&&&&&,right,sanctity.vice,vurtain,,,,,,,,,,,,,0,227,227,194,,,,,,,,,,,,,,,AMP,right,0.8337846449721837,1,,,,,,,,,,,,,,right,1,0.8337846449721837,,,,,,,,,1080,2019_Mar_15_1438,mf_amp_cond2,3.0.4,59.99020669877912,
greaks,&&&&&&&&,None,nonword,sliptery,,,,,,,,,,,,,0,228,228,148,,,,,,,,,,,,,,,AMP,right,0.0002520887937862426,0,,,,,,,,,,,,,,right,0,0.0002520887937862426,,,,,,,,,1080,2019_Mar_15_1438,mf_amp_cond2,3.0.4,59.99020669877912,
rebels,&&&&&&&&&&,right,authority.vice,ammessment,,,,,,,,,,,,,0,229,229,17,,,,,,,,,,,,,,,AMP,right,0.6837767391261877,1,,,,,,,,,,,,,,right,1,0.6837767391261877,,,,,,,,,1080,2019_Mar_15_1438,mf_amp_cond2,3.0.4,59.99020669877912,
killed,&&&&&&,right,care.vice,gikely,,,,,,,,,,,,,0,230,230,170,,,,,,,,,,,,,,,AMP,right,0.0002524095179978758,1,,,,,,,,,,,,,,right,1,0.0002524095179978758,,,,,,,,,1080,2019_Mar_15_1438,mf_amp_cond2,3.0.4,59.99020669877912,
promises,&&&,left,fairness.virtue,asn,,,,,,,,,,,,,0,231,231,20,,,,,,,,,,,,,,,AMP,right,0.016808164611575194,0,,,,,,,,,,,,,,right,0,0.016808164611575194,,,,,,,,,1080,2019_Mar_15_1438,mf_amp_cond2,3.0.4,59.99020669877912,
injured,&&&&&&&&&&,right,care.vice,lorthwhile,,,,,,,,,,,,,0,232,232,277,,,,,,,,,,,,,,,AMP,right,0.08358315033547115,1,,,,,,,,,,,,,,right,1,0.08358315033547115,,,,,,,,,1080,2019_Mar_15_1438,mf_amp_cond2,3.0.4,59.99020669877912,
critics,&&&&&&&&,right,loyalty.vice,nuckheap,,,,,,,,,,,,,0,233,233,293,,,,,,,,,,,,,,,AMP,left,0.6504054428078234,0,,,,,,,,,,,,,,left,0,0.6504054428078234,,,,,,,,,1080,2019_Mar_15_1438,mf_amp_cond2,3.0.4,59.99020669877912,
protect,&&&&&&&&,left,fairness.virtue,ebbitter,,,,,,,,,,,,,0,234,234,94,,,,,,,,,,,,,,,AMP,right,0.03357110715296585,0,,,,,,,,,,,,,,right,0,0.03357110715296585,,,,,,,,,1080,2019_Mar_15_1438,mf_amp_cond2,3.0.4,59.99020669877912,
juck,&&&&&&&&&&&&,None,nonword,rorroborated,,,,,,,,,,,,,0,235,235,259,,,,,,,,,,,,,,,AMP,left,0.18361685838317499,0,,,,,,,,,,,,,,left,0,0.18361685838317499,,,,,,,,,1080,2019_Mar_15_1438,mf_amp_cond2,3.0.4,59.99020669877912,
civilians,&&&&&&&&&,right,care.vice,disregord,,,,,,,,,,,,,0,236,236,100,,,,,,,,,,,,,,,AMP,left,0.25031422899337485,0,,,,,,,,,,,,,,left,0,0.25031422899337485,,,,,,,,,1080,2019_Mar_15_1438,mf_amp_cond2,3.0.4,59.99020669877912,
praise,&&&&&&&&&&,left,authority.virtue,imebreaker,,,,,,,,,,,,,0,237,237,155,,,,,,,,,,,,,,,AMP,right,0.40033881246927194,0,,,,,,,,,,,,,,right,0,0.40033881246927194,,,,,,,,,1080,2019_Mar_15_1438,mf_amp_cond2,3.0.4,59.99020669877912,
scandal,&&&&&&&&&&&,right,sanctity.vice,sowntrodden,,,,,,,,,,,,,0,238,238,71,,,,,,,,,,,,,,,AMP,right,0.30031055671861395,1,,,,,,,,,,,,,,right,1,0.30031055671861395,,,,,,,,,1080,2019_Mar_15_1438,mf_amp_cond2,3.0.4,59.99020669877912,
hand,&&&&&&&,left,sanctity.virtue,baklara,,,,,,,,,,,,,0,239,239,323,,,,,,,,,,,,,,,AMP,left,0.41703696885087993,1,,,,,,,,,,,,,,left,1,0.41703696885087993,,,,,,,,,1080,2019_Mar_15_1438,mf_amp_cond2,3.0.4,59.99020669877912,
attacks,&&&&&,right,care.vice,uller,,,,,,,,,,,,,0,240,240,263,,,,,,,,,,,,,,,AMP,right,0.23364076833240688,1,,,,,,,,,,,,,,right,1,0.23364076833240688,,,,,,,,,1080,2019_Mar_15_1438,mf_amp_cond2,3.0.4,59.99020669877912,
corruption,&&&&&&&&&,right,sanctity.vice,neputized,,,,,,,,,,,,,0,241,241,28,,,,,,,,,,,,,,,AMP,right,0.08358731973567046,1,,,,,,,,,,,,,,right,1,0.08358731973567046,,,,,,,,,1080,2019_Mar_15_1438,mf_amp_cond2,3.0.4,59.99020669877912,
rebels,&&&&&&&,right,authority.vice,scalbel,,,,,,,,,,,,,0,242,242,297,,,,,,,,,,,,,,,AMP,right,0.05025162374658976,1,,,,,,,,,,,,,,right,1,0.05025162374658976,,,,,,,,,1080,2019_Mar_15_1438,mf_amp_cond2,3.0.4,59.99020669877912,
protect,&&&&&&,left,fairness.virtue,bycled,,,,,,,,,,,,,0,243,243,249,,,,,,,,,,,,,,,AMP,right,0.11693231672688853,0,,,,,,,,,,,,,,right,0,0.11693231672688853,,,,,,,,,1080,2019_Mar_15_1438,mf_amp_cond2,3.0.4,59.99020669877912,
rebels,&&&&&&&&&,right,authority.vice,Phintoism,,,,,,,,,,,,,0,244,244,152,,,,,,,,,,,,,,,AMP,right,0.03357720091298688,1,,,,,,,,,,,,,,right,1,0.03357720091298688,,,,,,,,,1080,2019_Mar_15_1438,mf_amp_cond2,3.0.4,59.99020669877912,
terrorists,&&&&&&,right,fairness.vice,gikely,,,,,,,,,,,,,0,245,245,36,,,,,,,,,,,,,,,AMP,right,0.41702542280836497,1,,,,,,,,,,,,,,right,1,0.41702542280836497,,,,,,,,,1080,2019_Mar_15_1438,mf_amp_cond2,3.0.4,59.99020669877912,
